,ECG_Rate_Mean,HRV_RMSSD,HRV_MeanNN,HRV_SDNN,HRV_SDSD,HRV_CVNN,HRV_CVSD,HRV_MedianNN,HRV_MadNN,HRV_MCVNN,HRV_IQRNN,HRV_pNN50,HRV_pNN20,HRV_TINN,HRV_HTI,HRV_ULF,HRV_VLF,HRV_LF,HRV_HF,HRV_VHF,HRV_LFHF,HRV_LFn,HRV_HFn,HRV_LnHF,HRV_SD1,HRV_SD2,HRV_SD1SD2,HRV_S,HRV_CSI,HRV_CVI,HRV_CSI_Modified,HRV_PIP,HRV_IALS,HRV_PSS,HRV_PAS,HRV_GI,HRV_SI,HRV_AI,HRV_PI,HRV_C1d,HRV_C1a,HRV_SD1d,HRV_SD1a,HRV_C2d,HRV_C2a,HRV_SD2d,HRV_SD2a,HRV_Cd,HRV_Ca,HRV_SDNNd,HRV_SDNNa,HRV_ApEn,HRV_SampEn,eda_mean_chest,eda_std_chest,eda_min_chest,eda_max_chest,eda_slope_chest,eda_range_chest,eda_mean_scl_chest,eda_std_scl_chest,eda_std_scr_chest,eda_scl_corr_chest,eda_num_scr_seg_chest,eda_sum_startle_mag_chest,eda_sum_response_time_chest,eda_sum_response_areas_chest,eda_mean_wr,eda_std_wr,eda_min_wr,eda_max_wr,eda_slope_wr,eda_range_wr,eda_mean_scl_wr,eda_std_scl_wr,eda_std_scr_wr,eda_scl_corr_wr,eda_num_scr_seg_wr,eda_sum_startle_mag_wr,eda_sum_response_time_wr,eda_sum_response_areas_wr,resp_rate,mean_inhale_duration,std_inhale_duration,mean_exhale_duration,std_exhale_duration,ie_ratio,resp_stretch,temp_wr_mean,temp_wr_standard_deviation,temp_wr_tenth_quantile,temp_wr_nintieth_quantile,temp_wr_range,temp_chest_mean,temp_chest_standard_deviation,temp_chest_tenth_quantile,temp_chest_nintieth_quantile,temp_chest_range,acc_x_mean,acc_y_mean,acc_z_mean,acc_square_root,bvp_mean,bvp_standard_deviation,bvp_tenth_quantile,bvp_nintieth_quantile,bvp_range,subject,label
0,80.82955505635091,43.01072768916225,742.6100966702471,62.0905913655387,43.15252814794798,0.08361129433055603,0.05791831794641083,735.7142857142858,63.54000000000004,0.08636504854368937,87.14285714285711,21.052631578947366,52.63157894736842,262.8571428571428,5.32,,,,0.05449217784288794,0.0017498492355420782,,,0.968887159186103,-2.9096981134323245,30.513445278757384,81.76719984862447,0.37317463891691155,7838.270460558742,2.6797105047180145,4.601190354750944,876.4496975029451,0.3533834586466165,0.36363636363636365,0.5625,0.0,52.21485873735612,52.07757272752802,52.35781237514956,43.93939393939394,0.5258121401051373,0.47418785989486245,22.137491874703663,21.022691914292494,0.5975904064042787,0.4024095935957213,63.209293154874125,51.869646518422286,0.5888085954607623,0.4111914045392378,47.35759330688896,39.57533199651859,0.7859622671741628,1.668278412457034,1.2086434936523438,0.03778776530049377,0.968170166015625,1.371002197265625,-1.307896205357143e-07,0.40283203125,-0.008686609173895054,0.8274494552796654,0.5033254473619271,-0.3085264235551883,12,0.12283231249389989,5.038571428571428,5.038571428571428,0.6835471514392991,0.06452609325196026,0.0,0.807505,-0.0009897972465581978,0.807505,-0.02295454485165089,0.9589834222466878,1.246399867713557,-0.9855012520430088,1,0.09034942112854216,0.125,0.125,16.33915241332724,3.087142857142857,0.0,3.2342857142857144,0.0,0.9545053003533569,27.2552490234375,34.0373,0.045825319417865315,33.97,34.09,0.1599999999999966,31.322483371751833,0.056920589261412614,31.226685,31.376709,0.37976099999999846,0.8803517127046926,-0.11906830210036627,-0.26838028023759664,0.9280217526801624,-1.5495750000000004,124.18190137109242,-114.997,127.493,1178.73,S2,2.0
1,78.72285386955953,37.00096416946484,762.3296703296703,77.73553925337754,37.13375508736156,0.10197102681279704,0.048536696929904,748.5714285714286,81.5429999999999,0.1089314885496182,124.64285714285711,10.76923076923077,41.53846153846154,355.71428571428567,4.642857142857143,,,,0.011472708687986503,0.0007231677847732499,,,0.9407039103430992,-4.467784221580796,26.257530033193813,106.78299026237053,0.2458961859812869,8808.57835571435,4.066756855171807,4.65187593187113,1737.0418306609586,0.45384615384615384,0.45238095238095233,0.6842105263157895,0.19230769230769232,48.18698121450416,48.274868076683134,48.10556917456214,52.38095238095239,0.5727244363812848,0.4272755636187154,19.877454603912746,17.168879059602734,0.4781377133189845,0.5218622866810153,73.8377711021729,77.14007109172663,0.4835339407787307,0.5164660592212692,54.06999927347646,55.8809492412213,0.7271245071425172,1.0829869707650288,1.2870018877301896,0.04428391448882959,0.9716033935546876,1.52435302734375,1.3242449079241071e-06,0.5527496337890624,-0.014655481067753343,0.7957131080238539,0.5055345390643637,0.29809453799580327,10,0.2125557186413807,4.724285714285714,4.724285714285714,0.5995164687108886,0.035665514383355086,0.0,0.722938,-0.0007396257822277847,0.722938,-0.08867242802462436,0.4471713350423971,2.7593584873619257,-0.48073812327737403,1,0.09825214075932032,0.125,0.125,17.69761238695097,3.742857142857143,0.0,5.05,0.0,0.7411598302687412,19.78912353515625,33.855,0.05614160399603888,33.77,33.93,0.21999999999999886,31.295913830873843,0.06707384605897888,31.20462,31.392914,0.48989899999999764,0.8798276888786222,-0.13747687055625887,-0.2661554149262515,0.9294274350103966,-0.16402499999999978,75.8472348185709,-77.60799999999999,87.25700000000012,598.29,S2,2.0
2,79.83655945724294,43.38303714688395,751.7121046892039,71.2949122756991,43.540287497801245,0.09484337398714107,0.057712303521865876,748.5714285714286,74.12999999999982,0.09902862595419824,102.14285714285711,19.083969465648856,49.61832061068702,305.71428571428567,5.458333333333333,,,,0.047503212253928825,0.0012303606602831843,,,0.974753325342079,-3.046957943829602,30.78763254450711,96.01672880713812,0.320648629952266,9286.949268465083,3.1186785365303664,4.674843183109065,1197.7812451147142,0.3816793893129771,0.39230769230769236,0.5882352941176471,0.07142857142857142,51.54749199573105,51.452069452323144,51.63718917026491,48.46153846153846,0.5571236727306094,0.4428763272693907,22.985691951477428,20.493824336703966,0.5286349678798161,0.47136503212018377,69.81115921502732,65.92127319672773,0.5312921412701793,0.46870785872982096,51.97085714818502,48.813989264458264,0.7224277214072825,1.273706142340611,1.2407059369768416,0.052918598789231816,1.114654541015625,1.422119140625,1.0354178292410713e-06,0.307464599609375,-0.0033685942627993686,0.9326499300364759,0.3662348946041591,0.8148791338999686,11,0.12236009927860649,4.344285714285713,4.344285714285713,0.6184894073842303,0.03370378155527901,0.0,0.690904,-0.000853485607008761,0.690904,-0.047089195055210246,0.7666935019091559,2.4736163993846016,-0.7256570367624912,2,0.09152540320578406,0.375,0.375,16.288669420272164,3.57,0.0,3.8642857142857143,0.0,0.9238447319778188,27.2552490234375,33.949850000000005,0.06097764494433515,33.87,34.03,0.22999999999999687,31.2837900429851,0.063278649850261,31.197266,31.35611,0.4678049999999949,0.8805004792701101,-0.13229535605416612,-0.26526789893947467,0.9290587782461105,-0.6560000000000002,83.9740710369355,-75.114,82.69900000000004,972.37,S2,2.0
3,78.69398308649039,44.10081649251091,762.5581395348837,93.60731904698847,44.27123020290141,0.1227543372680849,0.05783272672088957,745.7142857142857,88.95599999999999,0.11928965517241379,114.28571428571433,18.6046511627907,52.71317829457365,395.7142857142858,4.777777777777778,,,,0.00986418898130761,0.0005797184065267183,,,0.9444921919547077,-4.618844354614689,31.304487087942274,128.63477199117568,0.24335944786445265,12650.708424849472,4.109148047364835,4.80908495613674,2114.3172886030416,0.4418604651162791,0.4444444444444444,0.6607142857142857,0.06666666666666667,50.79758950726691,50.68798859871491,50.89908100845366,50.79365079365079,0.5665953452530271,0.43340465474697276,23.56520693702677,20.61016849704189,0.4575941730801404,0.5424058269198593,87.01590148678947,94.73720205739191,0.46368944424023023,0.5363105557597699,63.745925711152495,68.55624150702677,0.8210859941901956,1.2061681948893714,1.4463000215802875,0.05183422077274237,1.21002197265625,1.7009735107421875,2.1089826311383927e-06,0.4909515380859375,-0.008217157335213726,0.8479336777612385,0.4801910739802016,0.8867209906444378,10,0.30457917298969284,7.525714285714287,7.525714285714287,0.7473058423028786,0.08182570290510835,0.0,0.995861,-0.000853485607008761,0.995861,-0.038346111454681246,0.7754872923942219,1.6595306317458378,0.9392930474759168,3,0.3907088601308618,4.625,4.625,18.751819674465672,7.857142857142857,0.0,2.1742857142857144,0.0,3.6136662286465175,22.6898193359375,33.637125000000005,0.07348117502263236,33.55,33.75,0.2700000000000031,31.267081873301805,0.14901155087853904,31.053406,31.422394,0.6528630000000071,0.8895294538056979,-0.12810353636256294,-0.22724760221744617,0.926992253435829,-2.46925,96.95310212399686,-82.68899999999998,91.56900000000006,895.5799999999999,S2,2.0
4,80.82670736613484,36.16620627029994,742.1215351812366,75.38306553682483,36.237552616844965,0.10157779011009999,0.04873353562158473,730.0,55.06799999999995,0.0754356164383561,89.2857142857141,8.955223880597014,40.298507462686565,348.57142857142856,3.9411764705882355,,,,0.007982093098662314,0.0008542258804054585,,,0.9033278583051356,-4.830554608847779,25.623819188975396,102.14248157788136,0.2508634878763721,8222.429126670846,3.986231748849835,4.6219702487259795,1628.65441188824,0.4552238805970149,0.4453125,0.6666666666666666,0.17857142857142858,45.499108734402846,45.794626567118726,45.16428360864362,53.125,0.5496938129091293,0.4503061870908707,19.032123025678555,17.225854279501696,0.41902327834376224,0.5809767216562378,66.11887874461459,77.8548676477122,0.4267861057602247,0.5732138942397755,48.651453386870216,56.38311126614693,0.7387958802476611,1.0261572094526872,1.3539862932477678,0.07637522529871929,0.9716033935546876,1.52435302734375,1.7111642020089285e-06,0.5527496337890624,0.00496904201596005,0.9400700215833601,0.29992956478872984,0.9194948953878781,10,0.20690058294583244,4.911428571428571,4.911428571428571,0.6430312959949938,0.06504794170044133,0.0,0.757534,-0.0007492465581977471,0.757534,-0.02933968110817694,0.851019146880634,1.5494320651820284,0.874524419720702,3,0.2237176916886371,2.375,2.375,21.453585036563904,0.6485714285714286,0.0,1.1742857142857144,0.0,0.5523114355231143,22.6898193359375,33.754850000000005,0.07063959499425557,33.65,33.84,0.28000000000000114,31.36789042440822,0.0511386413630516,31.281067,31.423859000000004,0.37115500000000523,0.8878020923022987,-0.13138428341959038,-0.23238985455394978,0.9270703476681932,-1.96575,99.70975300615719,-100.497,115.04200000000002,843.6099999999999,S2,2.0
5,75.34461546350751,33.22920976836722,796.617142857143,50.37369764160873,33.363043862517266,0.06323451370998455,0.04171289817990548,801.4285714285713,52.95000000000026,0.06606951871657787,71.42857142857144,10.4,45.6,255.71428571428578,4.166666666666667,,,,0.021338470080753697,0.0014555131333527428,,,0.9361448536799845,-3.8472437282393095,23.591234556210182,67.36036256549319,0.3502242811308041,4992.349223348854,2.8553131632427085,4.405275067339002,769.3397196562164,0.512,0.5083333333333333,0.7049180327868853,0.13333333333333333,50.507380073800746,50.48328975644837,50.529135490119415,43.333333333333336,0.4849157847667312,0.5150842152332687,16.428445184587915,16.931772437331745,0.5547910809940977,0.4452089190059022,50.172893916924636,44.94551324610413,0.5471563881904098,0.4528436118095904,37.331040001465155,33.961625983051135,0.7607299124974518,1.6349169977350855,1.647634506225586,0.15913598300430867,1.294708251953125,2.06146240234375,4.108973911830354e-06,0.766754150390625,0.005246749061144081,0.957900795462197,0.2565027152047022,0.929202233846071,6,0.4679407070307361,5.444285714285715,5.444285714285715,0.9974105056320401,0.0745407248718456,0.0,1.159941,-0.001162993742177722,1.159941,-0.028244196707645698,0.7103198340231401,1.828220053991344,0.7003251396381553,4,0.3890283190486975,3.5,3.5,29.091037550756848,0.7742857142857142,0.0,3.4585714285714286,0.0,0.2238744320528707,17.913818359375,33.403075,0.06101312053315235,33.33,33.49,0.21000000000000085,31.077989297067187,0.027345972018534993,31.046051,31.106201,0.3377379999999981,0.8714508132317007,-0.13000080046610357,-0.296084510001303,0.9295121113071803,-0.18615000000000007,44.216872148921674,-27.579999999999995,40.805000000000035,423.62,S2,2.0
6,74.32328402849102,41.254175452978316,807.7584204413472,71.79812627635454,41.392505907166615,0.08888564261221209,0.05107241770433993,807.1428571428571,59.303999999999995,0.07347398230088495,79.28571428571445,16.260162601626014,53.65853658536586,395.7142857142858,4.241379310344827,,,,0.016119703479492015,0.0008078142894149708,,,0.9522780421534225,-4.127712936645293,29.268921617261736,95.60248160768145,0.3061523207877696,8790.746571331052,3.266347932384998,4.6509958699094,1249.0838725205006,0.4634146341463415,0.4576271186440678,0.6481481481481481,0.06666666666666667,52.731591448931106,53.20614874175939,52.327205996983686,45.76271186440678,0.5582071948103007,0.4417928051896993,21.88456197779674,19.46926081582078,0.5727473927774476,0.4272526072225525,72.3520308927502,62.49014414482969,0.5714995919631137,0.4285004080368863,53.44974474805986,46.282125231864875,0.9075976428250505,1.5581446180465497,1.4900214113507952,0.04830938075338628,1.245880126953125,1.7009735107421875,2.1035330636160712e-06,0.4550933837890625,-0.02180943177230095,0.7557645669659008,0.5534658284984766,0.6256044758122058,7,0.2734534026466109,5.5928571428571425,5.5928571428571425,0.8740875369211514,0.0982187565022429,0.0,1.058715,-0.0009048035043804756,1.058715,-0.031210921889382046,0.8513596346987878,1.4061567688703323,0.85467319388862,4,1.8880527262289235,13.75,13.75,23.299793398094753,1.4257142857142857,0.0,1.7285714285714286,0.0,0.824793388429752,20.770263671875,33.515,0.0687664311647622,33.41,33.59,0.2600000000000051,31.103636533492377,0.07664069672969859,31.037262,31.234040000000004,0.5849919999999997,0.8785132963884452,-0.13005011137058967,-0.2722805843598703,0.9288893152675122,-0.805625,61.57972542621716,-32.14199999999998,45.127,805.6800000000001,S2,2.0
7,73.77607832932328,36.57905426448795,813.7780401416765,54.00990697234129,36.72118821579549,0.06636933452141117,0.04494966988556197,821.4285714285714,42.35999999999997,0.051568695652173875,55.71428571428578,17.355371900826448,52.066115702479344,252.85714285714278,4.481481481481482,,,,0.04562059262332148,0.00133795966229749,,,0.9715076466974635,-3.087396071782355,25.965801200616532,71.78769266175442,0.3617026852076284,5856.007108839196,2.7647016206859774,4.474571705219736,793.8862009890371,0.512396694214876,0.5086206896551724,0.711864406779661,0.23076923076923078,48.424543946932,48.408236422804386,48.44594819883384,50.0,0.4794092226346027,0.5205907773653974,17.98406276297233,18.740572431241038,0.5321914548800495,0.4678085451199505,52.370165137564314,49.10029145700411,0.5260816214832407,0.4739183785167597,39.15393153949093,37.16212908468339,0.759805299372657,1.7250680947293828,2.2000519725254604,0.29563590496016745,1.7253875732421875,2.828598022460937,1.1160714285714286e-05,1.1032104492187496,0.0029384750538625146,0.9779006165797117,0.1766552873713811,0.9724855030755386,15,0.5721684186709615,10.678571428571427,10.678571428571427,1.0230093247809764,0.054187122119149826,0.0,1.1830040000000002,-0.0012593003754693367,1.1830040000000002,-0.07468303014596167,0.43049221578054003,3.0475398476363416,0.6723065195574416,2,0.3030184151499109,2.375,2.375,27.52335614952789,1.0285714285714285,0.0,1.1085714285714285,0.0,0.9278350515463917,14.7735595703125,33.1085,0.12427130962531133,32.95,33.27,0.4399999999999977,31.263561787531604,0.036749428298544884,31.201690000000006,31.298737,0.3720700000000008,0.8765501267426259,-0.14216160354024215,-0.2765996742610586,0.9300846337914471,-0.137125,31.027920323207827,-30.718999999999994,31.580000000000016,383.31,S2,2.0
8,73.93101953005616,34.021264668648676,811.7447306791569,46.95429797867637,34.15959685078159,0.05784367450022305,0.04191128489393992,816.4285714285716,39.18300000000002,0.04799317585301839,51.071428571428555,11.475409836065573,45.08196721311475,275.71428571428567,5.083333333333333,,,,0.04272381424720615,0.0021819533018298896,,,0.9514103995784674,-3.1529988035029715,24.154482575786297,62.02474673747914,0.38943298999705034,4706.657660871262,2.5678358682647153,4.379682720972576,637.0774775701352,0.5573770491803278,0.5555555555555556,0.7846153846153846,0.2,50.89326614750343,50.897226560914696,50.885408590739445,45.2991452991453,0.5218360655737704,0.47816393442622934,17.450366933748104,16.704209416937342,0.5270570989321967,0.47294290106780335,45.02915873164829,42.65494193840208,0.5263694488838,0.47363055111619995,34.14777036793491,32.391933286030884,0.6817159556534973,1.468532459356863,1.869222215924944,0.15347019659692634,1.456451416015625,2.385711669921875,1.0964529854910714e-05,0.92926025390625,-0.023462091139634166,0.8605885247246504,0.3240186488096239,0.8440157733845673,11,0.4643173894792925,7.0600000000000005,7.0600000000000005,1.0272983322903628,0.05865353709630323,0.0,1.159941,-0.001275336670838548,1.159941,-0.056283677488349323,0.5212286277531146,2.4397354379060245,-0.6472528231796401,5,0.6627960466950581,9.75,9.75,29.877455559378852,0.7928571428571428,0.0,1.8171428571428572,0.0,0.4363207547169811,11.9232177734375,33.283899999999996,0.08421115601268339,33.15,33.372,0.28000000000000114,31.172527400908564,0.09574507318902632,31.06659,31.292816,0.48644999999999783,0.8727723829177558,-0.1378167057670516,-0.2895347237990578,0.9298147305016288,-0.23807500000000012,44.322224006660775,-37.21300000000001,46.52900000000001,455.95,S2,2.0
9,74.79544595270465,35.869452154428224,802.4854819976771,46.72257387259211,36.0151494028522,0.058222329152027394,0.044697945270157614,804.2857142857142,50.8319999999999,0.06320142095914731,67.14285714285722,20.32520325203252,56.09756097560976,238.57142857142867,4.92,,,,0.08031553113333736,0.005205424118142033,,,0.9391327645623792,-2.5217922628667466,25.466556368203424,60.601609019679444,0.4202290463927047,4848.464842252461,2.379654639735442,4.392574360713138,576.8436003164536,0.5365853658536586,0.5338983050847458,0.7301587301587301,0.0625,50.68659127625202,50.742633140170476,50.63329571112962,49.152542372881356,0.5246769118756011,0.47532308812439883,18.447730812675957,17.558662489964853,0.5038264357871204,0.4961735642128795,43.01546586786633,42.68752407840633,0.5069561705128158,0.4930438294871841,33.09568760402575,32.63840789913793,0.7028149654452447,1.9459101490553132,2.790517888750349,0.15464554223837101,2.4509429931640625,3.197860717773437,6.501334054129464e-06,0.7469177246093746,2.3675012189115866e-05,0.8848379400172558,0.3935488696681148,0.8839726997317289,11,1.040038584783592,15.33142857142857,15.33142857142857,1.114220351689612,0.05466845512812062,0.0,1.238102,-0.001418063829787234,1.238102,-0.048869787155486476,0.625036740855015,2.8823824297407787,0.4177804092902405,1,0.17427028832961722,0.125,0.125,24.614715622309955,1.03,0.0,1.12,0.0,0.9196428571428571,12.8662109375,32.7388,0.09209649510718339,32.63,32.87,0.3199999999999932,31.102529215368353,0.029662287811783334,31.0578,31.134094,0.327454000000003,0.8730084938644755,-0.1282779995188492,-0.2925913799747556,0.9296283080649006,0.5239499999999998,42.20005870593619,-43.309,54.23000000000002,305.67,S2,2.0
10,74.54097450902799,41.036259252470025,805.0638792102206,59.96855762311167,41.20493813043764,0.07448919169239303,0.05097267473076446,815.7142857142858,65.6579999999999,0.08049141856392282,87.14285714285734,25.203252032520325,60.97560975609756,241.42857142857144,4.92,,,,0.04126801141075874,0.0024023371276351052,,,0.9449892843075655,-3.187667621240248,29.136291170404597,79.86352444684114,0.36482601252838937,7310.256461322511,2.7410326173553314,4.570902723278534,875.6341017829858,0.5040650406504065,0.5042016806722689,0.7,0.13793103448275862,50.32028469750889,50.30713597891323,50.33354379033908,47.89915966386555,0.49149680136686935,0.5085031986331305,20.426800395486108,20.77719145934883,0.5218197256943105,0.47818027430568966,57.69108650322622,55.226090529282104,0.5182577963028907,0.4817422036971091,43.275371958654276,41.72297185056992,0.7743374414253603,1.7783364488959141,2.553990642002651,0.15384901962972192,2.2247314453125,2.9296875,6.299700055803572e-06,0.7049560546875,-0.00023751403092372,0.872021932296038,0.3651421680917789,0.8829551034264157,12,0.9986757789096595,13.482857142857142,13.482857142857142,1.0647608035043805,0.0568500635550256,0.0,1.184286,-0.0012945807259073842,1.184286,-0.06257655249979234,0.5503626040083041,2.8027266693039006,0.6284366176087136,2,0.29562653388682425,3.0,3.0,23.419288179366237,3.9814285714285713,0.0,1.42,0.0,2.8038229376257546,14.7735595703125,32.90945,0.10631064095824266,32.77,33.07,0.4000000000000057,31.177893068513303,0.09320064525655097,31.0578,31.281067,0.43505799999999795,0.8755259212923943,-0.1353776093173086,-0.2817962970075072,0.9296676228451268,0.44659999999999994,35.740425676099214,-35.751,38.09800000000002,286.6,S2,2.0
11,76.51440045528669,41.319128840807664,783.6974789915965,64.66763302537399,41.64547079929865,0.08251606615933418,0.05272331473360618,767.1428571428571,55.06799999999995,0.07178324022346362,64.28571428571422,11.76470588235294,52.94117647058824,191.42857142857144,2.8333333333333335,,,,,,,,,,29.447794807890425,85.52456682504884,0.34431971889585317,7912.132183803977,2.90427746399988,4.60526364413953,993.5482881933644,0.5294117647058824,0.625,0.9,0.25,64.14565826330532,64.08834438366827,64.1684530362457,43.75,0.8039596563317148,0.196040343668285,27.056252813841947,13.36051650800012,0.4321011268578243,0.5678988731421756,56.21906036856617,64.45051420964579,0.4732675473851638,0.5267324526148358,44.11702372696405,46.54230432224159,0.02210487643242187,inf,3.1396117911178485,0.10407320391211483,2.984619140625,3.4427642822265625,1.7440277050195258e-06,0.4581451416015625,-0.15371178012323536,0.2921837113528651,0.7859861790802115,-0.9303612367270087,2,0.10034550063827054,2.462857142857143,2.462857142857143,1.190705861344538,0.11325713869399555,0.0,1.25604,-0.00983353781512605,1.25604,-0.3130789061788379,0.3277555084691434,3.794404813432524,-0.8548073552537674,1,0.1758506712215675,0.125,0.125,,0.0,0.0,0.0,0.0,,9.4146728515625,32.594,0.010923462541624827,32.59,32.61,0.03999999999999915,31.08918206761905,0.017664033729062938,31.07248,31.106201,0.23199400000000026,0.870382532505762,-0.1272385721717562,-0.30160222857906704,0.9299028505297265,0.5119999999999989,52.71302192701501,-28.12,23.83800000000001,456.17,S2,2.0
12,65.18813708105823,66.81559862976714,920.5740987983978,78.5772749143437,67.10429504058588,0.08535681703070795,0.07258035905744019,918.5714285714286,55.06799999999995,0.05994961119751161,73.57142857142867,38.31775700934579,71.96261682242991,422.857142857143,5.095238095238095,,,,0.028176641710664915,0.003875443003785028,,,0.8790892062618979,-3.5692619524072504,47.44990206994109,98.64642761688827,0.48100983701327327,14705.051690629016,2.0789595618444814,4.87443666542273,820.3277357437177,0.6074766355140186,0.6190476190476191,0.8923076923076924,0.10344827586206896,48.017500683620455,48.20579192104831,47.805814617626005,53.333333333333336,0.5679907882196166,0.43200921178038354,35.776001098727235,31.200938163363812,0.47355268593051203,0.526447314069488,67.88370139595551,71.57458184550379,0.4913096303551573,0.5086903696448426,54.25918894450683,55.210593678354755,0.7320597175944812,1.66392609771817,0.7894735935756139,0.04311859516526086,0.5794525146484375,0.969696044921875,1.1771065848214285e-06,0.3902435302734375,-0.00688308561080178,0.8338475244927488,0.526303197460368,0.9572652912118744,88,0.6310658917651905,22.061428571428582,22.061428571428582,0.20059280851063832,0.018638298288950295,0.0,0.236032,-0.0002617321652065081,0.236032,-0.02963092576614075,0.8436439027901003,1.6409464323446805,-5.813215630687646e-05,5,0.0877473789194662,6.0,6.0,30.933628535556164,2.914285714285714,0.0,2.9857142857142858,0.0,0.9760765550239234,17.1173095703125,34.3578,0.04203066072645827,34.31,34.41,0.19999999999999574,31.91249205011357,0.1827634395356919,31.670258,32.16516,0.9043269999999914,0.9107303041517475,-0.14839184044092066,-0.07753523159878595,0.9259921907601897,-1.7636,46.33215836529707,-39.77699999999999,31.429000000000006,756.0400000000001,S2,3.0
13,66.79576328379027,56.20594969509127,898.5194805194807,65.32763545424964,56.464819854477135,0.07270586433638629,0.06255395783138246,895.0,63.54000000000004,0.07099441340782127,84.28571428571445,32.72727272727273,65.45454545454545,315.71428571428567,4.230769230769231,,,,0.029750364905216813,0.0032566616817380056,,,0.9013342909529113,-3.5149138813441483,39.92665701757758,83.14260768006564,0.48021896512094175,10428.851017439863,2.0823833972241244,4.72520657329985,692.5391433395507,0.5636363636363636,0.5619047619047619,0.864406779661017,0.20833333333333334,49.66360856269114,49.59308182109223,49.729779806678465,60.0,0.6014176663031624,0.39858233369683754,30.963978291316096,25.207378732323594,0.38314784090754433,0.6168521590924556,51.46439039737317,65.30015109376144,0.42405139769218264,0.5759486023078172,42.46970349907291,49.49505872015344,0.6938744583555603,1.5702171992808192,0.8065575463431222,0.054734485324833056,0.5901336669921875,1.0009765625,-2.0326886858258927e-06,0.4108428955078125,-0.0029900029632662544,0.8989307406180697,0.40646658911969136,-0.9938340080806338,65,0.4331125246768254,15.352857142857141,15.352857142857141,0.19693328222778472,0.016319006514365526,0.0,0.245001,-0.0002424881101376721,0.245001,-0.05092805006941678,0.8429503496697418,1.4841219536593782,-0.7312701540456997,4,0.12052627356531544,4.5,4.5,30.841403986353267,1.8671428571428572,0.0,1.2114285714285715,0.0,1.5412735849056602,7.1197509765625,34.199,0.043459427107491226,34.15,34.27,0.1599999999999966,32.0397661867259,0.11642035128487173,31.908447,32.22168,0.6458429999999957,0.9123140492372309,-0.1439455666951923,-0.05855552382752619,0.9254544829312507,1.1781250000000005,35.30009296933202,-32.019,34.85100000000002,413.32000000000005,S2,3.0
14,68.16776460399073,53.978164230012624,880.625,59.940456220865016,54.21984328182526,0.06806581259998866,0.06129528940242739,887.1428571428571,57.185999999999886,0.06446086956521727,74.28571428571422,29.464285714285715,66.07142857142857,285.71428571428567,4.666666666666667,,,,0.07209922398085587,0.006415456519847925,,,0.9182897201015748,-2.6297119978440815,38.33921885945051,75.90888388165547,0.5050689313153736,9142.937240833977,1.979927764306657,4.668055848645466,601.1764270192789,0.5982142857142857,0.5981308411214953,0.890625,0.18518518518518517,50.730756739201055,50.68217343221414,50.776384760791196,57.943925233644855,0.627261426236646,0.372738573763354,30.36634696220989,23.40832986856648,0.3917443535882793,0.6082556464117209,47.51097890449113,59.20190483164922,0.43961695956262226,0.5603830404373779,39.87109318975538,45.015638632209104,0.6612966633336304,1.8123787564307907,0.8347999954223633,0.039714821576820665,0.5794525146484375,1.0009765625,3.814697265625e-07,0.4215240478515625,-0.010663520486536097,0.8367657809887528,0.5836625844164236,0.46166386501390644,52,0.3537913752981317,14.331428571428567,14.331428571428567,0.20250360387984984,0.014064661052901833,0.0,0.245001,-0.0002793717146433041,0.245001,-0.035141740301382896,0.6023683184162301,2.0534322297356966,0.048699168071782935,5,0.13667636564077917,5.25,5.25,32.06922151276883,1.17,0.0,1.1171428571428572,0.0,1.047314578005115,17.1173095703125,34.279,0.05374216734909881,34.21,34.34,0.21000000000000085,32.07259132598105,0.11828973892105063,31.906952,32.223175,0.6014699999999955,0.9118169851877749,-0.14442898581088304,-0.06569194880213056,0.9255189779559925,-0.053899999999999434,48.63535512062469,-39.537,35.980000000000054,756.0400000000001,S2,3.0
15,66.95988853357352,63.39782944337634,896.3896103896104,87.49519666724179,63.689267976166064,0.09760844576189645,0.07072575218249222,903.5714285714284,79.42500000000031,0.08790118577075134,115.0,36.36363636363637,70.0,398.57142857142844,4.782608695652174,,,,0.020153190021453778,0.001877043914007893,,,0.9147969141178093,-3.904392689399949,45.035113274754245,115.71433440542731,0.38919217317506327,16371.493263807342,2.5694247441872067,4.921058403708166,1189.2770963138319,0.5909090909090909,0.5865384615384616,0.9016393442622951,0.09090909090909091,49.56043956043955,49.53101057591915,49.59331277675847,49.03846153846153,0.5663669818791633,0.43363301812083666,33.892977709544084,29.656639238875705,0.44427522984694473,0.555724770153055,77.12820278965602,86.26150660247457,0.46033643737093155,0.5396635626290683,59.57135890502228,64.50024717888137,0.6909682864101558,1.6519975268528966,0.7054957853044782,0.0279391714538968,0.6160736083984375,0.8342742919921875,-5.994524274553571e-07,0.21820068359375,-0.00731644778981802,0.5956958357722242,0.803799654749741,-0.37022790067477934,118,0.8806699447551235,29.457142857142838,29.457142857142838,0.19375796057571965,0.05696943869449516,0.0,0.361602,-0.0002152252816020025,0.361602,-0.011180524493954265,0.9054285750535144,0.6100406808531671,0.6711753221544919,2,0.0568684474330948,0.5,0.5,28.765169340877687,1.9185714285714286,0.0,1.237142857142857,0.0,1.55080831408776,9.6527099609375,34.078375,0.038953855806652914,34.03,34.13,0.14999999999999858,32.31342410824131,0.1385132342477112,32.126526,32.516693,0.7702330000000011,0.9067560968221122,-0.14273020743513118,-0.10866241373693403,0.9243300554443115,0.508599999999999,49.08666020483735,-29.439999999999998,27.667,890.88,S2,3.0
16,65.17332584084646,61.11576471081671,921.1214953271029,59.081021634213805,61.40598158425356,0.06414031366539039,0.06634929813369914,918.5714285714286,52.949999999999925,0.05764385692068421,68.57142857142867,38.31775700934579,71.96261682242991,322.8571428571428,4.458333333333333,,,,0.05868656757536681,0.006744671480793425,,,0.8969197041339168,-2.8355444100995415,43.42058598364195,71.7952218525128,0.6047837845370799,9793.571418833388,1.653483485449979,4.697911204691129,474.8488546693895,0.5981308411214953,0.5980392156862745,0.9344262295081968,0.14285714285714285,49.87551867219917,49.84467809713218,49.90405839666734,52.94117647058824,0.5702746864739205,0.42972531352607946,32.78978603204374,28.463742643698247,0.47399246015629964,0.5260075398437004,49.42893560449201,52.07047345529433,0.4997777593215086,0.5002222406784914,41.94275708045567,41.96140399906322,0.6712887608494928,1.967650135691719,0.7347827366420201,0.038888420808333234,0.5901336669921875,0.8914947509765625,-1.6566685267857142e-06,0.301361083984375,-0.0009941822697940163,0.8266378761785664,0.563650120615795,-0.9931041208346737,136,0.7961979556784278,31.54285714285715,31.54285714285715,0.17065398623279102,0.02099151982387366,0.0,0.211686,-0.0002649386733416771,0.211686,-0.013387362392456916,0.9976636071500815,0.8982942641888289,-0.9817289960933021,3,0.0584195092183759,1.875,1.875,29.10915105341169,1.5957142857142856,0.0,1.2042857142857142,0.0,1.3250296559905101,7.2540283203125,34.1356,0.035451120643600856,34.09,34.18,0.1599999999999966,32.105382797374325,0.1322809436570263,31.918823,32.313965,0.7398070000000025,0.9124647728455182,-0.14411059296084644,-0.055728952977758164,0.9254542348963276,0.19972499999999996,20.39966989939754,-21.631,17.636000000000006,175.47,S2,3.0
17,65.66219820491253,87.47154729143242,914.9783549783551,90.24899880265588,88.14258330767657,0.09863511886550674,0.09559958092506096,922.8571428571429,114.37199999999986,0.12393250773993793,161.07142857142856,42.42424242424242,69.6969696969697,337.142857142857,5.076923076923077,,,,0.04704180445610614,0.004475514356397101,,,0.913126023256651,-3.056718616091223,62.326218368158294,111.70540070341642,0.5579517013115383,21872.31845235189,1.7922698284625165,5.046864930388371,800.8248774281952,0.48484848484848486,0.4920634920634921,0.7419354838709677,0.05555555555555555,51.03327495621717,50.992074573585874,51.06972080050885,60.317460317460316,0.6432560639821416,0.3567439360178585,49.993143662559426,37.23032284006559,0.404648290300838,0.5953517096991621,71.05800752676271,86.19081222866716,0.4613041955202751,0.5386958044797249,61.4351481113978,66.38882832003013,0.35217853474026084,1.8718021769015913,0.5922318252018156,0.03922274710066127,0.4451751708984375,0.7598876953125,-2.8479041315756124e-06,0.3147125244140625,0.0023762220570593597,0.7989167607606648,0.5601922413526282,-0.6955612478429879,77,0.5520071187746985,18.912857142857145,18.912857142857145,0.24869437575757578,0.020618693719785485,0.0,0.297536,-0.00046906666666666667,0.297536,-0.04726467257507866,0.7885191956269033,1.8873430575280938,-0.4617561746658087,4,0.09869004262571134,3.875,3.875,29.213797039669775,1.5657142857142856,0.0,1.2142857142857142,0.0,1.2894117647058825,13.92364501953125,34.09004032258064,0.020647376515687422,34.07,34.11,0.13000000000000256,32.7089377036636,0.05843184115264999,32.63321,32.79184,0.5466930000000048,0.8995714954242179,-0.15203978401999318,-0.17382841468132038,0.9287417773822985,-1.0399193548387098,64.62624256703735,-51.26,44.057,695.99,S2,3.0
18,109.53924673799995,18.98561336220742,547.5374901341753,73.04862697551529,18.984599126408305,0.13341301425335197,0.034674545039016326,547.1428571428571,95.3099999999999,0.17419582245430792,120.0,2.209944751381215,19.337016574585636,292.8571428571429,3.851063829787234,,,,0.006358266215685302,0.00011391116290194076,,,0.9823998700531898,-5.057999546390962,13.424138780391516,101.5773344627149,0.1321568325394382,4283.838780874061,7.566767308088899,4.338803228075328,3074.4482146211317,0.36464088397790057,0.33918128654970764,0.5172413793103449,0.046511627906976744,55.74712643678161,55.55966773784946,55.955148812233304,49.707602339181285,0.6929730749874183,0.3070269250125818,11.206694987431815,7.459463668482571,0.4837456750117158,0.516254324988284,70.64889274785008,72.98416835213663,0.4873572910155542,0.5126427089844455,50.58090577994108,51.876451441258176,0.5271026557653391,0.33858120049603335,7.2813398579188755,0.6026709579607761,6.7279815673828125,10.074234008789062,4.553113664899553e-05,3.34625244140625,-0.03401672348912364,0.8657402204403014,0.08006610387799444,0.8271241828813635,9,0.3114825145319891,3.6814285714285715,3.6814285714285715,0.4974986339173968,0.1965863830627021,0.0,1.095808,-0.00043329787234042556,1.095808,-0.023708665042436884,0.9070243579956014,0.7726036218533071,0.9012162110537825,2,0.3522928684626427,2.0,2.0,14.904989890336715,1.1457142857142857,0.0,4.758571428571429,0.0,0.2407685379765836,27.06298828125,32.6222,0.06671046180536923,32.53,32.73,0.22999999999999687,32.11924688743018,0.06864705811798967,32.043396,32.22464,0.45629900000000134,0.9036457397190479,0.055470861200094736,0.06023273974097161,0.9073481262951774,-0.03240601503759407,16.956500116669034,-17.66,14.965999999999996,165.66,S3,2.0
19,87.29980479553195,49.06126046521685,687.202380952381,104.85936608715953,49.233682792777415,0.15258877005320745,0.07139273935172309,664.2857142857142,103.78199999999983,0.15623096774193523,143.21428571428578,23.61111111111111,52.083333333333336,481.42857142857133,4.5,,,,0.015796729246564348,0.00028346976391988043,,,0.9823715015134415,-4.147952370089801,34.81347096556035,144.22885712616238,0.24137659868654232,15774.273272362145,4.142903684290559,4.904919470202965,2390.105054275979,0.3611111111111111,0.3525179856115108,0.46938775510204084,0.058823529411764705,50.07350779182593,50.02998222880816,50.114242699003384,55.39568345323741,0.586384361344488,0.4136156386555121,26.658686048310084,22.389584076899098,0.4787383591073389,0.5212616408926609,99.7932750336671,104.13100156040866,0.4846648167367665,0.5153351832632336,73.03897344489272,75.3145369802881,0.6900909740761785,0.7757629460765371,9.426120550973074,1.4571490782407386,7.5870513916015625,12.09869384765625,-2.8163364955357142e-05,4.5116424560546875,0.00017980670458954203,0.9801887689963583,0.13622155190562701,-0.9173958769166898,17,5.834465645254587,24.761428571428574,24.761428571428574,3.2832598710888607,0.7826593847154588,0.0,5.059725,-0.00137628535669587,5.059725,-0.010864133037210337,0.9053808456654631,0.7213554364402368,0.8914995882856142,10,10.309637488450097,18.0,18.0,18.294076783064376,1.3371428571428572,0.0,2.37,0.0,0.5641952983725136,25.2197265625,32.4796,0.04154702622897595,32.41,32.53,0.17999999999999972,33.58097186278768,0.7252730097498589,32.35266,34.362732,2.306243000000002,0.9069037102533766,0.04316454506495438,0.028427892688916528,0.9083752873701141,-0.05054999999999997,22.189488371365332,-20.952,18.313000000000002,315.15,S3,2.0
20,89.72501192199125,47.443456631243095,668.523166023166,97.77795247121843,47.54952657769855,0.14625963233685482,0.0709675581079251,642.8571428571429,73.07099999999998,0.11366599999999998,101.78571428571433,22.2972972972973,49.32432432432432,462.8571428571428,3.8947368421052633,,,,0.02131898148856817,0.0004751105540292109,,,0.9782000299392793,-3.84815745340687,33.62259268530061,132.9396823229565,0.2529161503757749,14042.21792808909,3.9538795704198058,4.854405818742495,2102.5099761393467,0.3108108108108108,0.31506849315068497,0.43478260869565216,0.0,53.46592570927172,53.419651090959356,53.500665087129974,56.16438356164384,0.6024757757615756,0.39752422423842454,26.12843270857519,21.223908483254522,0.4829897320119245,0.5170102679880756,92.38970612041388,95.58818619009438,0.4901892824052127,0.5098107175947871,67.8916518904312,69.23711299013597,0.7035458748636185,0.8462109037584468,9.18380780356271,1.7391287413876768,6.9576263427734375,12.09869384765625,2.1302359444754465e-05,5.1410675048828125,0.010788468307191816,0.9859552991676901,0.10366719540821794,0.7953792778333993,12,3.414380629455365,13.952857142857141,13.952857142857141,1.7208682240300375,1.2226486439608975,0.0,4.330267,-0.0005407371714643305,4.330267,-0.0068131198994054116,0.9653234926594307,0.41508817454790287,0.9603775802223384,4,2.1455276426992334,3.625,3.625,16.672968090951027,1.3757142857142857,0.0,4.211428571428572,0.0,0.3266621438263229,21.0174560546875,32.5372,0.04336890770342839,32.47,32.61,0.17999999999999972,32.60352973473236,0.6182709996773131,32.131012,33.692809999999994,2.3121340000000004,0.9044678708409972,0.060064677559891554,0.03671423811024962,0.9072033014457326,-0.14177944862155414,19.48818008193707,-17.592000000000002,15.283999999999999,315.15,S3,2.0
21,77.66970845259245,84.78716820376476,774.1964285714286,129.06140233576738,85.07112843674143,0.16670369117294367,0.10951635150295991,755.0,137.67000000000004,0.18234437086092722,195.35714285714278,39.84375,62.5,550.0,4.923076923076923,,,,0.0404891173487732,0.002241899059948575,,,0.9475346189169752,-3.2067220484156542,60.1543718008116,171.4167815742149,0.3509246367151501,32394.434666600457,2.849614690380694,5.2174405151933385,1953.8871158066456,0.3515625,0.3467741935483871,0.4418604651162791,0.06451612903225806,52.66572065680113,52.45442865147313,52.87051365095233,54.03225806451613,0.6973531561617746,0.3026468438382253,50.26412260628828,33.11309653737459,0.43480445433513576,0.5651955456648644,113.03171811307308,128.8702591976476,0.463622967907165,0.5363770320928348,87.47185639099354,94.08512334041544,0.6320690001271632,0.896629687474998,8.099029960912219,0.32173047267742677,7.60345458984375,9.41925048828125,-3.2954462411680994e-06,1.8157958984375,-0.003889608043849621,0.8056763079657868,0.49240442955472047,-0.4183467184100391,15,4.533081277325873,24.51857142857143,24.51857142857143,4.452761830413016,0.48507776072382275,0.0,5.55524,-0.0049401414267834795,5.55524,-0.032682022513264866,0.766459199086718,1.4251415058619314,0.8435635501431602,8,5.02060669290227,11.625,11.625,15.650920352524633,4.757142857142857,0.0,2.66,0.0,1.7883995703544575,65.22979736328125,32.3486,0.04623184463815496,32.288,32.41,0.1599999999999966,33.19113007134184,10.555739041919166,33.36313,33.759552,307.08875,0.8991681949674851,0.02676375287403476,0.01749225839115373,0.899736472758891,0.24297500000000014,15.267823616821124,-15.073,14.891000000000002,155.61,S3,2.0
22,86.36941568386437,66.98087771481572,695.0804828973843,116.32383820614345,67.2137140245683,0.16735304913361596,0.09636420438049359,664.2857142857142,111.19499999999991,0.16739032258064504,159.28571428571422,23.943661971830984,50.0,534.2857142857142,4.057142857142857,,,,0.030345542221261092,0.001195103754242944,,,0.9621090907532104,-3.4951056513002903,47.527272975505596,157.84908738367315,0.3010931121824243,23568.65743304803,3.3212317370917694,5.079304954003912,2097.013594758509,0.3873239436619718,0.3795620437956204,0.5192307692307693,0.16129032258064516,48.86422302529685,48.628717117233904,49.1551964123187,55.47445255474452,0.6854030093428999,0.3145969906571001,39.35087360712993,26.659908643185066,0.49345037390542934,0.5065496260945705,110.88270613599524,112.34482572783229,0.5094083593671895,0.49059164063281036,83.19695238915243,81.64591415582282,0.589411901887742,0.6588581070813131,8.148284961155483,0.20730358206928726,7.5870513916015625,8.861160278320312,5.002702985491071e-06,1.27410888671875,-0.018862941068602486,0.6995113102671554,0.5942969623908606,0.06294206079386233,15,3.9562653605168734,23.169999999999998,23.169999999999998,3.921448295994994,0.3847358713305699,0.0,5.059725,-0.00425391239048811,5.059725,-0.02075931981048271,0.7495942416765029,1.4262489819462223,0.6432507704371532,9,5.160291663756456,12.75,12.75,15.374397025409314,2.7928571428571427,0.0,1.6157142857142857,0.0,1.7285587975243146,25.2197265625,32.41675,0.04535504603129935,32.37,32.472,0.1700000000000017,33.858974723661085,0.331959025093279,33.423523,34.362732,1.2628790000000052,0.9063062701309952,0.04578093150919345,0.0334853993138536,0.9080794133421449,0.09065000000000001,17.83215601231716,-16.569,15.024000000000012,212.86,S3,2.0
23,83.44929818950253,62.55921564553758,719.2909280500521,135.36910149692127,62.69864789753662,0.18819798251021674,0.08697345289079521,675.7142857142857,108.01799999999987,0.1598575052854121,161.42857142857144,24.087591240875913,53.284671532846716,631.4285714285714,3.425,,,,0.011648977190662362,0.00034521243323836626,,,0.971218361217963,-4.452536897617546,44.33463909957581,183.90382336019715,0.2410751353045077,25614.377660261536,4.148084366879547,5.115453918466258,3051.3942987592463,0.3357664233576642,0.33582089552238803,0.4666666666666667,0.0967741935483871,45.48260381593715,45.75323115910082,45.263956095921046,57.46268656716418,0.6792750166790641,0.32072498332093585,36.593309426513756,25.14463076957327,0.3509443925127276,0.6490556074872726,108.94565444768106,148.16025318372354,0.3690279511993496,0.6309720488006505,81.2656936161198,106.26314761007984,0.6450942595412616,0.642693399304113,9.121616668701172,0.5184450672425648,7.8739166259765625,9.71527099609375,2.2435869489397295e-05,1.8413543701171875,0.002547636018082923,0.9904140126569503,0.10631552786814431,0.9077194686677039,7,0.6719365585767763,5.934285714285714,5.934285714285714,4.007570231539424,0.5249916830333087,0.0,5.063569,-0.00597497496871089,5.063569,-0.012189568163021532,0.9948611414504723,0.8289921333527208,-0.9832509387682882,3,1.4417670836226466,4.625,4.625,20.168210675359834,1.512857142857143,0.0,2.067142857142857,0.0,0.7318590186592951,30.0079345703125,32.2113,0.05815293983134187,32.15,32.29,0.17999999999999972,32.701970009371294,0.4389222342926404,32.156279999999995,33.36313,1.5890509999999978,0.9082452194450348,0.04108775001854302,0.01464717522656268,0.9092920991565159,-0.06122499999999998,6.961253866067851,-6.663999999999998,5.626000000000001,67.08,S3,2.0
24,73.63971883583014,82.50352011584812,815.0351288056207,137.48054807927278,82.83573934087462,0.16868051844678314,0.10122694985767237,787.1428571428571,127.07999999999993,0.16144464609800355,183.92857142857133,42.62295081967213,68.0327868852459,578.5714285714287,3.8125,,,,0.021456711263596585,0.0007060815809235865,,,0.9681411279761987,-3.841717803122918,58.57371301253372,185.3995600092762,0.31593231941652433,34116.25303514173,3.1652348890637003,5.239931436808964,2347.332623033681,0.3442622950819672,0.3445378151260504,0.5121951219512195,0.1111111111111111,48.783114365711825,48.34033011934123,49.24050220647797,60.50420168067227,0.7052260163488009,0.29477398365119917,49.19531046175612,31.80563848527148,0.38809598564809994,0.6119040143518999,115.49901338458969,145.02749656123692,0.4168838739303042,0.5831161260696962,88.76992921097268,104.9870787246587,0.732929848232307,1.090347778818216,8.367893449184335,0.543932454966728,7.60345458984375,9.41925048828125,7.763940399308287e-06,1.8157958984375,-0.012283965799632143,0.9428146905616482,0.24235272560861967,0.6616599475058309,14,2.9977016651193664,18.73,18.73,4.638970918022528,0.3725932904014897,0.0,5.55524,-0.004726866082603254,5.55524,-0.05131031736020135,0.7900453070003514,1.563044905600553,-0.634280029781049,7,4.292977680946488,9.25,9.25,19.610460923100888,2.084285714285714,0.0,1.26,0.0,1.6541950113378683,65.185546875,32.28915,0.03948004794150646,32.23,32.34,0.18999999999999773,32.93942255754918,10.55037365117663,32.806824,33.614044,306.94138,0.8998905246992543,0.02432032158122489,0.008849990407761582,0.9002626043635995,-0.01504999999999992,12.092772712541695,-10.828,10.292000000000003,138.12,S3,2.0
25,90.59602545055094,42.47513142829666,662.1093000958773,91.64182175188844,42.53175401533133,0.13840890278783,0.06415123820515135,635.7142857142857,61.421999999999855,0.09661887640449417,94.28571428571433,12.751677852348994,46.97986577181208,555.7142857142857,3.8205128205128207,,,,0.020125382618788275,0.0003352784877969162,,,0.9836135066188547,-3.905773443744535,30.07449167999895,123.83094941584432,0.24286732696366523,11699.771259328312,4.117474394361855,4.775147480957304,2039.4830537970283,0.28859060402684567,0.2925170068027211,0.3488372093023256,0.0,54.961294862772704,54.66819635943582,55.29635020820035,54.421768707483,0.7443058485432145,0.25569415145678565,25.99965825980303,15.238854451446281,0.37162981644977716,0.6283701835502227,75.48914006193756,98.16055096594846,0.39246836871440277,0.6075316312855972,56.45614447036465,70.24142812803186,0.6672949419535095,0.7822520254651829,8.760698362077985,0.3629440848922159,8.119964599609375,9.544754028320312,-1.743861607142857e-05,1.4247894287109375,0.0017892613828009937,0.9886176857472461,0.06970240513048613,-0.9694292462595309,24,0.5939577047410259,11.05714285714286,11.05714285714286,2.604553956195244,0.2681125680338593,0.0,3.1387810000000003,-0.003928386733416772,3.1387810000000003,-0.020845334431267654,0.9931002013962067,1.1424267778971824,-0.9897925313548007,1,0.3358905926685125,0.125,0.125,19.43267510544462,0.9557142857142857,0.0,1.29,0.0,0.7408637873754153,26.5594482421875,32.05625,0.047180531008730035,31.99,32.11,0.17999999999999972,31.90239965327638,0.07926699669829562,31.806274,32.022614000000004,0.4685669999999966,0.9097522035469111,0.030616014544452938,0.020135949336141996,0.9104899058532797,0.005814536340852233,9.436540082004932,-8.893999999999998,7.787999999999997,114.42999999999999,S3,2.0
26,95.31291562982447,27.127188459947263,629.4631483166515,53.460915072761594,27.214478850128284,0.08493096889902135,0.04309575315487878,617.1428571428571,40.24199999999995,0.06520694444444436,55.714285714285666,5.095541401273886,41.40127388535032,277.1428571428572,4.617647058823529,,,,0.03298279943976217,0.00041022218249205393,,,0.9877153320495362,-3.41176908250088,19.243542541383587,73.14467702515213,0.2630887622180127,4421.988650382531,3.8009985358908414,4.352587733531812,1112.0912411232468,0.29936305732484075,0.2987012987012987,0.34782608695652173,0.02631578947368421,49.8468271334792,49.85311714252037,49.84146062415755,52.5974025974026,0.5242040141508594,0.4757959858491405,13.932735995629038,13.273841382312478,0.4599826015470381,0.5400173984529621,49.60819542421908,53.75100672421223,0.464139997525378,0.5358600024746218,36.435519658510486,39.14949290162709,0.8110917705876095,1.1502366540734168,9.296189433506557,0.3052176066995697,8.566665649414062,9.71527099609375,-1.0920933314732143e-05,1.1486053466796875,0.002462363698476864,0.9905795349124452,0.06048047019416747,-0.8828693873465919,45,0.7006238589814983,16.955714285714286,16.955714285714286,3.190011979349187,0.4420830690047956,0.0,4.004542,-0.005010339173967459,4.004542,-0.01624486835926513,1.0014990980998013,0.8060509636467271,-0.9959605256944288,1,0.38648758231058356,0.125,0.125,17.62923827207399,0.9714285714285714,0.0,1.717142857142857,0.0,0.5657237936772047,26.5594482421875,32.1275,0.03859370005856477,32.07,32.16,0.1600000000000037,32.143909418151175,0.2148210778297725,31.909912,32.486816,0.957060000000002,0.9098895701273388,0.029334668585232326,0.01787247359369318,0.9105377410738537,0.06839598997493748,8.055819172890832,-7.371999999999999,6.517999999999995,80.28,S3,2.0
27,77.96085017611445,54.8616655428479,770.0892857142858,87.66064429704494,55.07448975252412,0.11383179317413371,0.07124065554549525,748.5714285714286,81.5429999999999,0.1089314885496182,120.71428571428578,28.90625,64.0625,438.57142857142844,4.571428571428571,,,,0.03769052768348578,0.00048636725986828686,,,0.987260167161579,-3.2783464711779704,38.94354517439883,117.77292821673338,0.33066635740543354,14408.900098319175,3.024196376814619,4.865600940223246,1424.6738511995732,0.3359375,0.33599999999999997,0.4523809523809524,0.0,49.150684931506845,49.01838271678394,49.28476097214187,52.800000000000004,0.597693539775761,0.40230646022423905,30.109937854946924,24.702964914005722,0.47295196499271086,0.5270480350072894,80.99421307623614,85.50087759143231,0.4852486981123954,0.5147513018876048,61.10102662585755,62.93105967822126,0.7514789570556744,1.2481440226390736,7.834379468645368,0.20441418839663797,7.3638916015625,8.336257934570312,-9.781973702566965e-06,0.9723663330078125,-0.0017179245422671297,0.9937193375174571,0.0601234584080124,-0.991778524386595,113,1.3870217656421715,42.92142857142857,42.92142857142857,1.9388876395494368,0.17272996579210256,0.0,2.235937,-0.0027984192740926157,2.235937,-0.024820144148344946,0.9919533497344418,1.3319707031498402,-0.9908587805973659,1,0.25311351914220204,0.125,0.125,17.348143000049227,3.4971428571428573,0.0,3.742857142857143,0.0,0.934351145038168,21.3714599609375,31.95275,0.023027443581403437,31.93,31.99,0.10999999999999943,31.830014306167055,0.03610939696026528,31.788513,31.88031,0.398378000000001,0.9095008243426407,0.029219558034485213,0.02511643309591769,0.9103166302244154,-0.13355889724310774,8.13662866277516,-7.759999999999999,6.586,113.50999999999999,S3,2.0
28,81.60766260421748,55.27977858598543,735.3411513859276,93.11678631671943,55.480291416762974,0.12663072934408526,0.07517569019739664,722.1428571428571,87.89700000000006,0.12171691394658762,130.0000000000001,25.37313432835821,57.46268656716418,504.2857142857141,3.35,,,,0.03562758914486359,0.0005778999562111291,,,0.9840383331213173,-3.3346349652836653,39.2304902829989,125.75805036284824,0.3119521189284314,15499.204350567972,3.205620155538747,4.897279514259373,1612.5301638576125,0.3358208955223881,0.33587786259541985,0.4090909090909091,0.0,51.261210762331835,51.140685799978435,51.38259988803874,55.72519083969466,0.689856891790108,0.3101431082098921,32.588896546333174,21.850995089344504,0.387467875045424,0.612532124954576,78.28050998223407,98.42382327458137,0.4142923959366553,0.585707604063345,59.957795244597904,71.29065497798636,0.6851185575912067,0.9415333490617629,8.232628991263253,0.26085279195747274,7.7144622802734375,8.724594116210938,-1.2119838169642857e-05,1.0101318359375,0.003881605743279709,0.9897199464737519,0.08949925092338576,-0.9914675306803563,25,0.5774359867356414,11.820000000000002,11.820000000000002,2.232173197747184,0.19736583733626084,0.0,2.580996,-0.0032302828535669586,2.580996,-0.024332598313264595,0.99032124295202,1.3423289334484083,-0.9904705830491289,1,0.2920058432285413,0.125,0.125,19.567724358035168,1.15,0.0,1.9714285714285715,0.0,0.5833333333333333,23.98223876953125,31.992299999999997,0.03294576693442174,31.95,32.05,0.14000000000000057,31.820025597348607,0.032344490547548975,31.788513,31.871399,0.37463400000000746,0.9097952201733209,0.031239957174650813,0.013554467504643739,0.9104323155313799,0.02583959899749366,7.835406608334085,-7.539999999999999,6.426,105.03999999999999,S3,2.0
29,73.08046526532272,97.9544558530797,822.8875379939209,126.43514716439762,98.99001450402685,0.1536481491415315,0.11903747636266104,788.5714285714286,122.84399999999987,0.15578043478260853,193.57142857142844,44.680851063829785,80.85106382978722,538.5714285714288,3.6153846153846154,,,,0.05217501349615756,0.0008610013103509317,,,0.9837657238483675,-2.953151567347942,69.99651052555207,165.9675918542343,0.42174806384506963,36496.36029029193,2.371083795579327,5.269219665249508,1574.092270547594,0.2978723404255319,0.32608695652173914,0.3333333333333333,0.0,52.21967963386728,52.04112662886995,52.40419701817467,54.347826086956516,0.6896607528447841,0.31033924715521577,58.15668101332178,39.01217903909861,0.3182463339796221,0.681753666020378,93.62783849135818,137.03674472684276,0.3743790325685237,0.6256209674314763,77.93706334937542,100.74973825948271,0.3446307235335917,1.299282984130261,7.4410668687865735,0.04531646358254915,7.2353363037109375,7.5862884521484375,-5.708625859126665e-06,0.3509521484375,0.04010346108301317,0.9171297962704795,0.2731263168242716,-0.993655601598054,42,0.5037196539065656,15.467142857142857,15.467142857142857,1.583539260188088,0.10409611625265028,0.0,1.673952,-0.005247498432601881,1.673952,-0.09406379735998446,0.7883333246717716,3.1018285122722604,-0.9332891840846198,1,0.2248059752895406,0.125,0.125,17.824825912742682,3.4714285714285715,0.0,2.5285714285714285,0.0,1.3728813559322035,21.9879150390625,31.902749999999997,0.0227081566261656,31.869999999999997,31.93,0.09999999999999787,31.903081392714284,0.02083292832527598,31.883270000000003,31.927704,0.2742599999999946,0.9094285070725849,0.030491336160472463,0.02636875075043074,0.9103215047845787,0.06506250000000006,10.208467196978813,-9.068,9.744999999999996,75.6,S3,2.0
30,57.73562330076565,120.15251199961499,1040.8270676691727,159.65749529284798,120.72991014731885,0.15339483402404672,0.11543945745827347,1018.5714285714284,190.62000000000046,0.18714446002805096,250.71428571428578,60.0,80.0,737.1428571428571,4.523809523809524,,,,0.029272206189661885,0.0008004877163918604,,,0.9733815760273236,-3.531116807368822,85.36893815721172,208.45318829509844,0.4095352959358841,55905.98379958224,2.4417919772086205,5.4544284042893425,2035.9972912101173,0.47368421052631576,0.4893617021276595,0.7391304347826086,0.08,52.32373210814632,52.34349835177955,52.32201634465143,53.191489361702125,0.6660325347281228,0.33396746527187715,69.70886823905283,49.36195932403916,0.41847610599362217,0.5815238940063777,134.84780295188474,158.96163609324557,0.4540662905268754,0.5459337094731248,107.3388472830782,117.69750374954758,0.6796383339493883,1.4987723445465804,8.12617333003453,0.2102803175552639,7.47833251953125,8.394241333007812,9.72747802734375e-06,0.9159088134765625,0.004459873335101403,0.9763451850878885,0.11602976731090985,0.74971600674366,77,1.379590481695753,38.30285714285712,38.30285714285712,0.3992860538172716,0.07992193861786422,0.0,1.316184,-0.0004910275344180225,1.316184,-0.004089740267482123,0.3211120728935782,1.1083885101218058,-0.42203206771997176,2,0.9955047455923871,1.375,1.375,21.050363060034694,2.19,0.0,1.3771428571428572,0.0,1.5902489626556016,15.00396728515625,30.791700000000002,0.05861483812244367,30.71,30.85,0.1999999999999993,33.14199563163383,0.027979257292648985,33.10855,33.180786,0.3341700000000003,0.911245290797887,-0.034499921798365384,0.02505893645685912,0.9122423882399721,-0.8197249999999999,23.081363771629064,-22.706999999999994,21.038000000000004,245.74,S3,3.0
31,55.01687841504399,117.86065410834983,1092.4175824175825,145.3316938539013,118.51962635738357,0.13303675828090752,0.1078897447325202,1120.0,133.434,0.1191375,172.14285714285722,68.13186813186813,85.71428571428571,730.0,3.7916666666666665,,,,0.03231624478244483,0.0007082411003583635,,,0.9785540612843524,-3.432185240741647,83.8060315010018,188.89000772262324,0.443676362298991,49731.79478405014,2.253895147395988,5.403604242846617,1702.9530871904449,0.5494505494505495,0.5617977528089888,0.82,0.037037037037037035,49.69581088127932,49.53337281275905,49.825821217185414,56.17977528089888,0.6252360842900497,0.37476391570995055,66.26773362703909,51.30491643901229,0.5033240900547981,0.496675909945202,134.008653316973,133.12068153981187,0.5233756342229715,0.4766243657770286,105.7112380116061,100.8794089604961,0.6526432299423606,1.6389967146756446,8.104477876935686,0.07217025983482359,7.7880859375,8.278274536132812,-3.85284423828125e-06,0.4901885986328125,0.0038809397039969292,0.9730676478903761,0.16888574955352403,-0.9256536685981516,88,1.534223640902222,43.56,43.56,0.3931031846057572,0.022645246419832128,0.0,0.489706,-0.000497441802252816,0.489706,-0.048126809194845126,0.6251936551388664,2.4558319306656844,0.18263948321183332,4,0.20714780252570758,2.875,2.875,21.39327237578843,1.7242857142857142,0.0,1.5271428571428571,0.0,1.1290926099158092,15.5548095703125,30.858799999999995,0.02153414261691501,30.83,30.89,0.08000000000000185,33.15550409854145,0.03746363059700479,33.107025,33.198853,0.30261200000000343,0.9121925631849543,-0.02782433598628893,0.029361810106178377,0.9130890328416644,-0.5698999999999997,27.438584105859686,-21.943,21.07900000000001,412.42,S3,3.0
32,55.89119935456048,127.1337728044204,1074.9844720496894,159.07580900415363,127.83699377488121,0.1479796342554059,0.11826568300285537,1103.5714285714284,149.31899999999993,0.13530524271844654,197.1428571428571,68.47826086956522,88.04347826086956,840.0,4.380952380952381,,,,0.026098515446575668,0.0010551911827435716,,,0.9611400683837312,-3.6458768457127313,90.39440518472097,207.05357730021598,0.43657495013309616,58799.57165582614,2.2905574396678863,5.4763442722932245,1897.072447579438,0.5434782608695652,0.5604395604395604,0.8431372549019608,0.08695652173913043,49.72624798711757,49.56384226772166,49.87119930903193,57.14285714285714,0.6206896551724138,0.3793103448275861,71.21682901318957,55.67275619468579,0.4629334001157807,0.5370665998842195,140.87761680704205,151.73885776420207,0.4881882975586543,0.5118117024413459,111.62065143136742,114.28940619737612,0.5417912775806695,1.2862109025629083,8.200514924185617,0.04558628866162733,7.8155517578125,8.394241333007812,-1.2425013950892858e-06,0.5786895751953125,0.007821612858879598,0.9106173514996324,0.30801594037914926,-0.732670762855854,83,1.477441773579971,40.64142857142857,40.64142857142857,0.3897670050062579,0.018611898608948043,0.0,0.489706,-0.000484613266583229,0.489706,-0.053487570415896905,0.7797341106054054,2.7118723028091933,-0.42278750126283543,2,0.15383739375221667,0.75,0.75,21.237141207843475,1.8485714285714285,0.0,1.2385714285714287,0.0,1.4925028835063436,15.5548095703125,30.845799999999993,0.016340978211916782,30.83,30.87,0.10000000000000142,33.12525920212568,0.02309346839579023,33.095,33.14914,0.29193200000000274,0.9111393752727295,-0.027019880620562542,0.04515579685915546,0.9126577020499606,-0.20692499999999994,19.837322442774923,-20.924,19.759000000000004,245.74,S3,3.0
33,55.200661087765106,122.7343632261679,1088.0793650793648,150.10768298837982,123.42655452032854,0.13795655703610454,0.1127990909166958,1110.7142857142858,162.02700000000007,0.14587639871382643,215.357142857143,58.88888888888889,81.11111111111111,617.1428571428573,5.0,,,,0.029565646415549,0.00038964630333417115,,,0.9869924054159369,-3.5211421857322622,87.27575367981542,193.09026287588205,0.45199458729783837,52942.42796780733,2.212415874221648,5.430773964358962,1708.7838509769294,0.5222222222222223,0.5348837209302325,0.8478260869565217,0.034482758620689655,49.48064211520301,49.366181952797206,49.60702373567272,54.65116279069767,0.6403401280808123,0.35965987191918775,69.84096033317226,52.342062993748726,0.3880845648965499,0.61191543510345,120.28834755065449,151.0449041212916,0.4308794155617838,0.5691205844382161,98.35407031924706,113.0359558270105,0.6519055500680082,1.6462518855568167,7.880350505283901,0.042644310677561845,7.746124267578125,8.021926879882812,-1.6185215541294642e-06,0.2758026123046875,0.009193020064467237,0.9447706740116847,0.28039506254529545,-0.9414645482554564,83,1.4751668901072217,40.7257142857143,40.7257142857143,0.3818541795994993,0.018728066827427423,0.0,0.410268,-0.000505459324155194,0.410268,-0.05790475723959333,0.8144182515037163,2.7010550587406037,-0.9279774523578573,1,0.055582846647373285,0.125,0.125,20.60001529057943,2.085714285714286,0.0,1.6614285714285715,0.0,1.2553740326741187,25.8819580078125,30.9279,0.03371099342490795,30.89,30.97,0.11999999999999744,33.167543570049,0.029447194065084004,33.134125,33.198853,0.37634299999999854,0.908116490149065,0.008203356626390197,0.0038427469444986336,0.9081616714245742,0.09557500000000019,18.623403476862926,-14.135,10.764000000000001,241.41,S3,3.0
34,53.75580482047042,136.48824338290075,1117.9220779220777,138.75961171179165,137.27881462407387,0.12412279393364264,0.12209101696658178,1131.4285714285716,147.20100000000005,0.13010189393939398,206.42857142857156,65.9090909090909,84.0909090909091,617.1428571428573,4.4,,,,0.07474954924566903,0.001042063016671445,,,0.9862509453808092,-2.5936120968877967,97.07078073393362,171.7869530725827,0.5650649190623905,52387.6083604606,1.769708163195293,5.426198682115339,1216.0510927319851,0.5340909090909091,0.5476190476190477,0.8695652173913043,0.0,49.78383771200531,49.57214989734929,50.001870379589604,59.523809523809526,0.6694704818700608,0.33052951812993936,79.42484276245395,55.807911791337716,0.38213101504523816,0.6178689849547617,106.19310533717797,135.03252061932622,0.45167381470075435,0.5483261852992457,93.76908144210839,103.3157893144085,0.5285031630406034,1.791759469228055,7.981234337942941,0.07636518772799103,7.7880859375,8.223342895507812,-3.47137451171875e-06,0.4352569580078125,0.001808963818198455,0.9867235812540528,0.1439930456128192,-0.9704991335977853,86,1.5259411683479736,43.828571428571415,43.828571428571415,0.3965757183979975,0.020963955400823915,0.0,0.432049,-0.00045735168961201505,0.432049,-0.04365923858485979,0.6901809544134718,2.504396442149828,-0.51027592318584,3,0.08358599456935051,1.875,1.875,20.66398293077855,3.8242857142857143,0.0,6.801428571428572,0.0,0.5622768325981936,25.8819580078125,30.8838,0.02945724568435199,30.83,30.909999999999997,0.120000000000001,33.18086116926901,0.020533336509546394,33.152159999999995,33.200348,0.29357900000000114,0.9133235585837532,-0.025118766636705408,-0.0025662956090757275,0.9136725129796742,-0.4689999999999997,28.91608910317155,-21.471,20.257000000000005,412.42,S3,3.0
35,51.63235759488071,108.61870912275363,1163.9732142857142,125.19514246225819,109.46682071550366,0.10755843942601863,0.09331718959650526,1182.857142857143,115.43100000000004,0.09758659420289859,147.50000000000045,60.9375,81.25,568.5714285714287,3.764705882352941,,,,0.033948115015603304,0.0011411714739540278,,,0.9674780655829625,-3.382921948886947,77.40473124286466,160.24550084766423,0.4830384056551371,38967.56106038697,2.0702287608864482,5.297673334559649,1326.9793786299526,0.59375,0.6129032258064516,0.868421052631579,0.16666666666666666,51.352074966532804,51.24894893961801,51.44456505626024,48.38709677419355,0.5876415754863332,0.4123584245136668,59.349945772506594,49.716609670773245,0.5233921058866791,0.47660789411332116,115.93095911662162,110.6283564924426,0.5355514886615713,0.4644485113384288,92.09343989910266,85.76238842690597,0.4200063444965898,1.7346010553881064,7.7665714707228615,0.03481404078464724,7.523345947265625,7.8914642333984375,-2.129004931195118e-06,0.3681182861328125,0.0034986545820202258,0.9623809867632472,0.26003150780471534,-0.9738506256892283,65,1.114650830311895,33.661428571428566,33.661428571428566,0.3606282086811352,0.015737398328454385,0.0,0.369268,-0.0006143355592654424,0.369268,-0.08370971298849554,0.6858458994962298,3.5153744316003777,-0.7594728445789817,1,0.05244502340040513,0.125,0.125,22.193695118293174,2.8185714285714285,0.0,1.71,0.0,1.6482873851294904,18.6309814453125,30.96493333333333,0.012709602756563538,30.95,30.97,0.05999999999999872,33.31972953346666,0.03740900019354586,33.266632,33.36313,0.30474800000000357,0.9057212375708988,0.06109349730014801,-0.00499069055157697,0.9077930835776981,-0.23016666666666685,10.808009059875461,-13.74,9.177000000000003,106.08,S3,3.0
36,76.73832951028909,41.66082680163607,781.7913832199547,71.94009673767822,41.82715303177961,0.09201955698383296,0.053288930648030586,772.1428571428571,81.54300000000016,0.10560610545790956,111.42857142857144,23.015873015873016,62.698412698412696,317.1428571428572,4.846153846153846,,,,0.04999702094630969,0.0014878097907996169,,,0.971101977621396,-2.99579185640282,29.57626354649882,97.50111965731747,0.30334280929746343,9059.469831855904,3.2966003127484123,4.664072893087112,1285.6888862225326,0.38095238095238093,0.3870967741935484,0.5625,0.03225806451612903,50.49235993208829,50.44641861537663,50.537015644906155,52.41935483870967,0.5556078151015457,0.44439218489845433,22.046579751426535,19.716973703078768,0.46028938237084316,0.5397106176291567,66.14927390518368,71.62919723302454,0.46832168621962805,0.5316783137803719,49.30404707992552,52.53332727067375,0.82972783005407,1.713507272328307,2.9765441186087473,0.3732146726208478,2.138900756835937,3.825759887695313,1.989092145647322e-05,1.6868591308593759,-0.005564059667583894,0.9311860373613964,0.2467410831816745,0.926905088170779,17,2.957041519109667,23.37285714285714,23.37285714285714,2.0123601695869837,0.31145197562609406,0.0,2.987138,-0.0017790963704630788,2.987138,-0.03090484036559072,0.8001825611140704,1.243043375548951,0.9113847948605249,6,5.769436123876469,15.125,15.125,30.136525672881575,1.04,0.0,0.8442857142857143,0.0,1.2318104906937395,9.1766357421875,32.7076,0.024571312000655755,32.68,32.73,0.09000000000000341,33.29812127528179,0.1102292927593282,33.158203,33.446167,0.5702519999999964,0.9052889616247146,-0.08896221783472431,-0.15764238541777567,0.9232082657352205,2.255874999999999,97.53261672408361,-103.20499999999996,102.32700000000003,961.8,S4,2.0
37,76.40726831242966,35.98049358148589,785.3854875283446,65.01696173000728,36.121085954876534,0.08278350283071766,0.04581252665454599,785.7142857142857,77.30699999999986,0.0983907272727271,99.64285714285722,15.079365079365079,58.730158730158735,298.57142857142867,5.25,,,,0.021970974242495896,0.0005189856265341999,,,0.976923674850622,-3.818033049349591,25.54146482251536,88.55717515757489,0.2884177908460603,7105.905509835565,3.467192495534156,4.558589538160154,1228.1790925281898,0.3888888888888889,0.3951612903225806,0.5510204081632653,0.030303030303030304,49.058084772370506,49.07229839363633,49.04764417843265,54.83870967741935,0.5470779630236839,0.45292203697631606,18.893868719270817,17.191271879496288,0.48691454107490717,0.5130854589250928,61.79454330780466,63.43349028131161,0.4915358740954174,0.5084641259045827,45.692142966823,46.47229022817799,0.7841147600114806,1.3922290966397053,3.4860146604265485,0.1431067624111688,3.167724609375,3.947067260742188,-1.4005388532366136e-06,0.7793426513671879,0.02334831062670693,0.6690087485175351,0.6824169363681228,0.5596525092786278,16,3.6214430476351698,23.841428571428565,23.841428571428565,2.544475414267835,0.19627580944799125,0.0,2.992407,-0.003735584480600751,2.992407,-0.019400926726211132,0.6508517259213278,1.8901954555671274,0.33785460525762745,8,2.389004219004729,10.75,10.75,34.006779318502836,0.7828571428571428,0.0,0.6271428571428571,0.0,1.2482915717539864,9.24072265625,32.6121,0.03881180090802616,32.568000000000005,32.66,0.14999999999999858,33.60885303894231,0.051932506654336394,33.5278,33.66101,0.4752500000000026,0.9057342896973943,-0.08827771615529748,-0.15352788415766228,0.9228858921433176,-0.3741750000000007,73.34123352286908,-88.45699999999998,83.595,660.1500000000001,S4,2.0
38,73.6436493994534,40.068606130971304,815.0059031877214,66.61344575487871,40.2351158295627,0.08173369725830752,0.04916357780262881,817.1428571428572,65.65800000000007,0.08035069930069938,91.42857142857144,23.140495867768596,62.8099173553719,291.42857142857144,4.84,,,,0.031199131015968096,0.0009904426431240415,,,0.9692309487036561,-3.4673650366068807,28.450523244909984,90.11861653409025,0.3157008433895305,8054.797873987072,3.1675556810791927,4.613024756726531,1141.8229430942195,0.4132231404958678,0.42016806722689076,0.58,0.03333333333333333,50.52784856206771,50.53802219639284,50.514656948098356,52.10084033613446,0.5294535131298793,0.47054648687012063,20.70238098114461,19.51675664877398,0.4784833049387281,0.521516695061272,62.3372889034545,65.08016178672003,0.48310324148354045,0.5168967585164597,46.44634628321807,48.04337232268941,0.7986915005173354,1.754854912292604,3.342090410505022,0.22498351727407864,2.8095245361328125,3.9089202880859375,5.553109305245536e-06,1.099395751953125,0.019391651313686375,0.8705005991349498,0.43666116679212735,0.8671257455013424,15,3.804113540211281,25.625714285714285,25.625714285714285,2.343776937421777,0.27073283164225276,0.0,2.996245,-0.0025639449311639553,2.996245,-0.026152067341929687,0.7796719906329478,1.3017210186104633,0.7862421920121221,9,2.566106667154052,10.5,10.5,36.23084094161736,0.46714285714285714,0.0,0.5785714285714286,0.0,0.8074074074074074,8.5784912109375,32.6684,0.031271148232507345,32.63,32.71,0.11999999999999744,33.486840585463064,0.10678460642338351,33.33899,33.633728000000005,0.5397639999999981,0.9052928302293539,-0.08575374658692794,-0.15710396165839333,0.9228165951515669,0.9322499999999997,72.15001628247497,-87.21600000000001,88.07800000000003,587.98,S4,2.0
39,72.94849949104564,40.97047721750315,822.7261904761904,64.55445915653762,41.130034903730404,0.07846408672024137,0.04979843560564131,814.2857142857143,67.7760000000001,0.08323368421052643,99.64285714285722,20.0,60.0,267.1428571428571,4.8,,,,0.023194896535051066,0.0010129052721393886,,,0.9581578996636314,-3.763823001445802,29.08332659086716,86.55336935579751,0.3360161113002252,7908.205235765622,2.976047773811999,4.605048041671191,1030.3478487489954,0.5166666666666667,0.5130434782608696,0.711864406779661,0.125,51.68453292496172,51.6724919991996,51.69048242428177,52.17391304347826,0.583992316966019,0.41600768303398095,22.232692871246172,18.764594227986635,0.4632791430711639,0.5367208569288361,58.91221517755369,63.41006741610296,0.47553307873419237,0.5244669212658076,44.524946543671156,46.75974040911536,0.7977574058353198,1.656584690859802,3.9107746233258927,0.20125349125258116,3.47900390625,4.6871185302734375,1.233782087053572e-05,1.2081146240234375,-0.023601682162842606,0.8427077216781605,0.3605821849051024,0.8780058674314025,19,2.660716900998003,24.57428571428571,24.57428571428571,2.4660466914893617,0.18605780439499334,0.0,3.111371,-0.003202461827284105,3.111371,-0.04069678817995701,0.8497209935472261,1.8829172606264313,-0.7954589078037889,3,1.12225461027339,3.875,3.875,31.178874371953853,1.3042857142857143,0.0,4.001428571428572,0.0,0.3259550160656908,9.70458984375,32.4966,0.02709752182807577,32.47,32.532000000000004,0.11999999999999744,33.63878113949801,0.025142144032747556,33.60498,33.665527000000004,0.3256840000000025,0.9035973913800612,-0.09737982039257392,-0.1647123728981546,0.9236347984535241,-1.9794500000000002,68.01641016200293,-67.61699999999999,63.026,725.87,S4,2.0
40,77.54006756320207,37.1853498431079,774.0719910011248,56.99018116833967,37.33302963919238,0.07362387714692141,0.04803861950232206,768.5714285714286,57.18599999999997,0.0744055762081784,80.0,16.535433070866144,55.90551181102362,255.71428571428578,5.521739130434782,,,,0.04468525542521038,0.0008977483825263557,,,0.9803051947538837,-3.108111688036432,26.398438420111297,76.31755431229378,0.34590257324138135,6329.254432026433,2.890987455309185,4.50832266435084,882.5323685468749,0.3700787401574803,0.3709677419354839,0.4782608695652174,0.029411764705882353,50.41224970553593,50.423351613355074,50.40015799643675,54.03225806451613,0.570732450129435,0.429267549870565,19.94359392826454,17.296218768085396,0.4976170969408592,0.5023829030591409,53.835914045997505,54.093099883828806,0.5054306817956042,0.4945693182043957,40.59589006256385,40.15733207469932,0.7240513762175769,1.697143492853206,3.6462680980137416,0.188484007788903,3.167724609375,4.233169555664063,7.269723074776786e-06,1.0654449462890634,-0.008249366677571743,0.8798924313389878,0.4098173757889703,0.9130953127744785,17,2.6906857727465163,23.01,23.01,2.5816837040050067,0.17023246912707468,0.0,3.111371,-0.003061195244055069,3.111371,-0.04522516242135247,0.6934028714308061,2.002419564914989,-0.3916045904732607,5,1.978736868628038,8.125,8.125,32.97017098643699,0.5928571428571429,0.0,1.1242857142857143,0.0,0.5273189326556543,9.91668701171875,32.5478,0.040139606001115956,32.49,32.61,0.1600000000000037,33.633607786188776,0.024059202607509614,33.598907000000004,33.659485,0.36196999999999946,0.9066005457578541,-0.09354166378915447,-0.1471603522837018,0.9232176134136227,-1.4144750000000004,76.7172357745415,-86.035,81.25500000000002,747.05,S4,2.0
41,83.08820236694314,35.92298809005475,722.2373949579832,72.81235311825705,36.02783314017949,0.10081498635568846,0.049738477044856705,720.0,73.07100000000007,0.10148750000000009,94.64285714285711,13.23529411764706,52.94117647058824,348.57142857142844,5.037037037037037,,,,0.0207496443274076,0.0005472036461406208,,,0.9743058856963117,-3.8752261733001623,25.47552512487834,99.03105555563567,0.25724783990175876,7925.824027011611,3.887301834611686,4.606014535650321,1539.8544157798171,0.34558823529411764,0.3458646616541353,0.4782608695652174,0.06060606060606061,47.43202416918428,47.63651730985466,47.22219084248603,54.13533834586466,0.5375333864392484,0.46246661356075164,18.692813085293768,17.338524414610024,0.4235834478736325,0.5764165521263674,64.45266787155654,75.18645867908806,0.43066686381793867,0.5693331361820615,47.45296437949323,54.56018693872962,0.822000884204575,1.3819746999753741,4.533284301757813,0.1224798125468756,4.2041778564453125,5.0403594970703125,1.8855503627232142e-06,0.836181640625,0.008167780628851375,0.4829775337147156,0.7694805850528693,0.3504884926276056,12,2.5311367664553894,20.812857142857144,20.812857142857144,2.635038997496871,0.22142946386395707,0.0,3.1190450000000003,-0.002979545682102628,3.1190450000000003,-0.020181852554430862,0.7811366795896246,1.6307853907298617,0.6189753125584666,8,2.2367642751235324,15.875,15.875,28.77070075062744,2.6414285714285715,0.0,3.815714285714286,0.0,0.6922500935979033,15.362548828125,32.435399999999994,0.019794432269510737,32.41,32.45,0.10000000000000142,33.62413583748804,0.03047068058481236,33.58377,33.665527000000004,0.431792999999999,0.9009816151234347,-0.08640168014764786,-0.17856514068932583,0.9225609088792828,1.6186999999999998,72.8843863027385,-79.39899999999999,88.63100000000003,668.11,S4,2.0
42,76.3829009125044,38.15863772008982,785.5215419501134,101.074610255763,38.29732955382889,0.12867197760718066,0.048577455463994376,780.0,111.195,0.1425576923076923,137.8571428571429,14.285714285714285,57.14285714285714,394.2857142857142,4.2,,,,0.0061831284800291505,0.0004604280500769295,,,0.9306955471831324,-5.085930909060034,27.080301428848383,140.60149260766153,0.19260322864718116,11961.710793245738,5.192020959481645,4.784763407919516,2920.0235862135287,0.46825396825396826,0.4628099173553719,0.6964285714285714,0.17857142857142858,48.20809248554913,48.08239449000376,48.35154831926952,52.066115702479344,0.5470314514772662,0.45296854852273366,20.036791373826848,18.232912676644062,0.49806461737814944,0.5019353826218507,99.22766604641616,99.61249928840863,0.49981742881277264,0.5001825711872275,71.58073315347278,71.60687508597668,0.8197355207278152,1.079920155655957,4.274151109967913,0.2776157761238433,3.773117065429688,5.0403594970703125,1.3929094587053578e-05,1.2672424316406246,-0.009934286953786925,0.923948101320514,0.3134595065320811,0.9181549127567974,15,2.6730975414136706,23.114285714285714,23.114285714285714,2.4375279123904883,0.16841110193207032,0.0,2.896164,-0.0030355794743429287,2.896164,-0.03633520572732449,0.6309324286320451,2.148827430950884,0.41834502813908464,4,1.3826605907857694,7.875,7.875,34.81746656182274,0.98,0.0,0.8385714285714285,0.0,1.1686541737649063,14.39208984375,32.4624,0.019265718771940128,32.43,32.49,0.07000000000000028,33.62988169601863,0.029697933372614945,33.592865,33.665527000000004,0.3392020000000002,0.8988733880528484,-0.09724780864460128,-0.19027349624842776,0.9239234315734092,0.7223499999999993,62.29000050477373,-60.268,66.699,616.4200000000001,S4,2.0
43,85.04943318994604,49.838087572037274,705.8163265306122,87.28008719532455,50.01772180984896,0.12365835687641763,0.07061056212316978,699.2857142857143,92.13300000000002,0.131753013278856,123.21428571428578,24.285714285714285,68.57142857142857,377.1428571428571,5.0,,,,0.039581650077929915,0.0006426907670950969,,,0.984022341855862,-3.2293896499867154,35.367870271246474,118.42824189830162,0.298643885143698,13158.732661832802,3.3484696983460136,4.826184173671588,1586.213517699419,0.3357142857142857,0.33576642335766427,0.41304347826086957,0.029411764705882353,49.680511182108624,49.66715801275752,49.6972612352789,54.01459854014598,0.5937318973364702,0.4062681026635298,27.25269266725932,22.54346093390361,0.4593811726045242,0.5406188273954758,80.26789577663774,87.07648010061882,0.47038272872180287,0.5296172712781972,59.940154946518405,63.60236244665722,0.7869595082685796,1.2660669341217308,4.7241327067783905,0.07270537642848332,4.4559478759765625,5.1456451416015625,7.629394531250126e-07,0.689697265625,0.021130294554359236,0.5761702194514029,0.7058325536716392,0.710951190450663,13,1.534461767224927,20.47714285714286,20.47714285714286,2.3597275068836043,0.20251318475747862,0.0,2.767272,-0.0032072653316645807,2.767272,-0.033267732259080245,0.8523714741241472,1.477900123149051,-0.8546451750909002,3,0.7917209811333713,4.125,4.125,21.171685419640674,0.9814285714285714,0.0,3.415714285714286,0.0,0.28732747804265996,18.5333251953125,32.356500000000004,0.03466632928310766,32.31,32.39,0.14000000000000057,33.694853991885836,0.023800780810320377,33.659485,33.718567,0.32122799999999785,0.9009812519983933,-0.09628190687669053,-0.17849597591030344,0.9235248970442408,2.2297749999999983,95.67908732883886,-108.36299999999999,125.39900000000002,629.19,S4,2.0
44,83.72106701416399,45.30052586205285,717.1014492753624,77.65863607966071,45.466747609989376,0.10829518774245328,0.06317171148911978,715.0,78.36599999999996,0.10960279720279714,104.28571428571433,23.91304347826087,60.86956521739131,377.1428571428571,5.3076923076923075,,,,0.032821426239402485,0.0006928008090609946,,,0.9793281579175566,-3.4166737378535936,32.14984555352074,105.23954426696137,0.3054920636292966,10629.37483616873,3.273407459820178,4.733477832322689,1377.967637086189,0.32608695652173914,0.33088235294117646,0.4222222222222222,0.029411764705882353,50.06027727546716,50.03496796212566,50.087229294970584,55.88235294117647,0.5987151567944253,0.4012848432055749,24.876495653817596,20.36598657968097,0.4357356643372904,0.5642643356627097,69.46891447495743,79.05334654009765,0.44964747710549724,0.5503525228945029,52.17647992315769,57.72436664248693,0.7289587361514913,1.341173925839421,4.628090635027204,0.1094468610208102,4.327392578125,4.90875244140625,-3.978184291294643e-07,0.58135986328125,0.007797918404902911,0.718768898243468,0.6354285939550768,0.6338340338238433,12,1.6906244247501974,17.694285714285716,17.694285714285716,2.6312321695869834,0.2137697642831606,0.0,3.1190450000000003,-0.0033957972465581978,3.1190450000000003,-0.034211731151387335,0.9049506097953548,1.4887295793832862,-0.8992774447179267,7,1.838507015259441,11.75,11.75,23.97538827957746,1.022857142857143,0.0,3.99,0.0,0.2563551736484067,15.14434814453125,32.4043,0.0283287184801366,32.37,32.45,0.10999999999999943,33.665200581663115,0.03907891398864332,33.614044,33.712524,0.431792999999999,0.9026030771844828,-0.08286766390008302,-0.1711698263303305,0.9224199011887754,1.3381999999999998,86.29650681796139,-100.42299999999999,107.002,617.5699999999999,S4,2.0
45,82.53997627770808,47.36296220639577,727.2584033613446,70.7192409459515,47.53627489834779,0.09724087149641919,0.06512535570230198,726.4285714285714,79.42499999999997,0.10933628318584067,107.5,30.88235294117647,67.64705882352942,324.2857142857141,5.44,,,,0.08143324535887973,0.0005324132163719147,,,0.9935044355694024,-2.5079716697119854,33.61322233296958,94.4496754467647,0.3558849956230418,9973.796221446382,2.8098964898739744,4.705830600693399,1061.5752460304009,0.3161764705882353,0.3259259259259259,0.4090909090909091,0.0,50.71488645920943,50.71455438189185,50.710995896584734,50.37037037037037,0.557250776664353,0.4427492233356471,25.093641257428207,22.367489788792145,0.5196500646610923,0.4803499353389077,68.0857087592341,65.46050301328228,0.5238774794626184,0.4761225205373817,51.30962175266813,48.915141082305276,0.656955156528702,1.3719056236677911,4.672176235743931,0.1322704638295975,4.3605804443359375,5.183029174804688,4.2997087751116075e-06,0.8224487304687509,-0.0017849868509013634,0.6879712202640693,0.6328644517893809,0.54267237404203,10,2.1445936449987655,17.252857142857142,17.252857142857142,2.1139822841051314,0.11026043286223233,0.0,2.388852,-0.00273139549436796,2.388852,-0.04589088513802379,0.599409904746706,2.602961933103033,-0.2638013635666396,2,0.6631707047657566,2.5,2.5,17.053459786944824,1.2642857142857142,0.0,2.7514285714285713,0.0,0.45950155763239875,19.586181640625,32.2562,0.028558693903849557,32.21,32.29,0.10000000000000142,33.698066235896626,0.021970490662617786,33.662506,33.718567,0.42605600000000265,0.9012830219218255,-0.10007129719087056,-0.17721608001040304,0.9239755890391558,1.3817249999999996,110.14660688734976,-137.77999999999997,136.939,725.28,S4,2.0
46,83.97787074519883,47.849477231463,714.7308488612836,73.05444684563612,48.00892071412041,0.10221252792156266,0.06694754718884356,715.0,76.24799999999993,0.10664055944055935,103.21428571428567,25.36231884057971,70.28985507246377,355.71428571428567,4.928571428571429,,,,0.08666158138496452,0.0009865183295879826,,,0.9887445554119162,-2.4457446146835746,33.94743339440184,97.35528591263345,0.34869635558223555,10382.844603839298,2.8678246388042985,4.723286464100773,1116.791550632349,0.32608695652173914,0.33088235294117646,0.4,0.0,51.63058372156755,51.53539067054399,51.72017407076771,50.73529411764706,0.5849354907969474,0.4150645092030527,25.972096948994533,21.8781617505821,0.47830263348093427,0.5216973665190656,67.33035783396225,70.31838030757821,0.4898694154626563,0.5101305845373436,51.02904518985915,52.073642904380314,0.7349039591520143,1.3748656652962683,4.687982226780482,0.10490874211192226,4.4673919677734375,5.1456451416015625,-3.226143973214286e-06,0.678253173828125,-0.00905925547124329,0.8103173421697787,0.4896544505856606,-0.7665578875186303,13,1.14517611956313,14.168571428571429,14.168571428571429,2.165553270963705,0.14368757869888202,0.0,2.672309,-0.0028658760951188987,2.672309,-0.05848785608159637,0.817827431733467,2.0131157113615985,-0.6285029015166501,2,0.6912101364831299,2.125,2.125,18.018808477824173,1.7,0.0,1.6942857142857144,0.0,1.0033726812816188,18.5333251953125,32.3038,0.029660738333632777,32.27,32.34,0.14000000000000057,33.69859499292867,0.022095177112625448,33.664032,33.718567,0.38360600000000034,0.902176920462451,-0.10248290171897544,-0.17169860450491337,0.9240705339684777,0.3464249999999987,104.54334660928953,-123.23599999999998,141.04100000000003,712.56,S4,2.0
47,84.13340777772427,47.40422558561402,713.5258358662613,72.38174645244301,47.92721197439681,0.10144236244027158,0.06643659304650486,707.1428571428572,67.7760000000001,0.09584484848484862,97.14285714285711,19.148936170212767,59.57446808510638,285.71428571428567,3.6153846153846154,,,,0.060524516813265185,0.0016324210471914658,,,0.9737371063732856,-2.804706759448614,33.88965659046109,97.74070336937167,0.34673023031549877,10406.207962342598,2.8840865680793804,4.724262610744888,1127.5705989689434,0.3404255319148936,0.35555555555555557,0.5625,0.0,50.40142729705619,50.34283375948796,50.45169871938653,51.11111111111111,0.6417050008884323,0.35829499911156754,27.148286842046762,20.285937848086228,0.5017580009749283,0.4982419990250718,69.2345084604544,68.99150624083204,0.5167775345687294,0.4832224654312705,52.58539074790061,50.849519209896094,0.42755828240489047,1.7047480922384253,4.831006516339395,0.09452225862761147,4.6295166015625,5.1727294921875,-5.403077477333295e-06,0.543212890625,0.030594061181250604,0.4382500378247736,0.8018763200210018,-0.07226784703028954,5,0.609938661018846,5.338571428571429,5.338571428571429,2.1791912652329755,0.14059816355700275,0.0,2.365827,-0.007448075268817204,2.365827,-0.15192891101066458,0.4205065185205483,3.602475397772461,-0.4832887562937685,2,0.5722724329092459,0.75,0.75,26.449237742555518,2.5628571428571427,0.0,0.5771428571428572,0.0,4.44059405940594,20.31097412109375,32.19114285714286,0.021020227130375903,32.16,32.21,0.07000000000000028,33.703388642693874,0.02491428230687992,33.66858,33.730713,0.2486859999999922,0.9010377308446533,-0.08366526804231537,-0.17487017141069686,0.9216552752149151,13.833999999999998,174.34247730406375,-139.45299999999997,148.181,1541.45,S4,2.0
48,62.11916760984604,91.80637112833446,966.5126050420167,116.87494349011601,92.22637027672222,0.12092438616983703,0.09498724657020216,972.8571428571429,130.25699999999986,0.13389118942731262,180.0,55.88235294117647,80.3921568627451,508.57142857142867,4.434782608695652,,,,0.03974107477340501,0.0030448123652814184,,,0.9288360585953975,-3.225369997095719,65.21389182689173,150.86514768634106,0.4322661186298366,30908.57007182109,2.3133897312371414,5.197049023653943,1396.0395338366247,0.5196078431372549,0.5252525252525253,0.7307692307692307,0.08,48.16929133858267,47.85077820391432,48.450916012476156,55.55555555555556,0.547698275324725,0.4523017246752748,48.282438604020605,43.876566196826396,0.3930405548739196,0.6069594451260804,94.58180642104469,117.53541883429658,0.41740616516796536,0.5825938348320348,75.08965302696167,88.71225321729239,0.6911589465412606,1.7707060600302227,1.3618483025687083,0.018402466755953972,1.1852264404296875,1.503753662109375,2.3433140345982143e-07,0.3185272216796875,0.004029771187311715,0.4063149591705063,0.9105050564014249,0.8474773585917422,89,0.34907026687195025,23.417142857142863,23.417142857142863,0.16909062453066334,0.006607874203398089,0.0,0.178072,-0.00021006007509386733,0.178072,-0.07288521146497798,0.5403448202781487,3.556268940611037,-0.05391685910585428,2,0.026215377324695935,0.375,0.375,26.080021912407634,4.304285714285714,0.0,1.57,0.0,2.741583257506824,13.64288330078125,32.8084,0.030128213906286002,32.77,32.84,0.14000000000000057,32.69631109654148,0.11642414484627828,32.621246,32.93875,0.7397449999999992,0.8679990665011521,-0.16078696337545384,-0.2817133783696388,0.9266268151693033,1.746575,63.80166063881135,-79.213,63.02200000000001,741.34,S4,3.0
49,62.231111334461986,73.77450149494967,964.9375866851593,88.04937333575461,74.12176088003146,0.09124877562105313,0.07645520551063463,961.4285714285714,86.83800000000014,0.09032184249628543,109.28571428571422,50.48543689320388,76.69902912621359,402.857142857143,4.681818181818182,,,,0.036916950788597795,0.001741005807702198,,,0.9549638428672447,-3.299084462449486,52.411999751758,112.60449284870471,0.46545211852406915,18541.135250274503,2.1484487022445222,4.975106431886537,967.6999061108089,0.5242718446601942,0.5346534653465346,0.7962962962962963,0.10714285714285714,51.361773921426845,51.49038468620289,51.240306132256855,43.56435643564357,0.4968550684679718,0.5031449315320283,36.95264646030494,37.18580913317698,0.5503961447575454,0.44960385524245483,83.53979602843175,75.50413425264875,0.5408585842057458,0.4591414157942542,64.59255220570041,59.51327032742813,0.6468105592143969,1.7805861686299296,1.372020149230957,0.016543740123794042,1.2786865234375,1.540374755859375,6.811959402901786e-07,0.261688232421875,-0.017506579590692597,0.1462469941212724,1.1237922074503157,0.6703523521082911,74,0.3705618328626705,18.811428571428575,18.811428571428575,0.1793977928660826,0.010002225171045792,0.0,0.207493,-0.0002180650813516896,0.207493,-0.06041317016776314,0.7717712555479298,2.390505038273548,-0.11526884346986814,2,0.03535651992657633,0.375,0.375,25.43107344234369,2.7528571428571427,0.0,1.42,0.0,1.9386317907444668,16.65191650390625,32.7716,0.01190774899867836,32.75,32.79,0.03999999999999915,32.95427786610191,0.022269410077601484,32.926790000000004,32.977783,0.45519999999999783,0.7606710131543938,-0.15651212116082794,-0.5413041752269698,0.9466396592377396,-0.1344499999999988,88.40296051471871,-102.024,73.084,765.95,S4,3.0
50,64.12635625091383,85.1103439725019,936.5633423180593,110.53308029161076,85.51434905759798,0.11801986613957548,0.09087516041557625,943.5714285714287,130.2569999999997,0.13804678274034787,175.35714285714266,50.943396226415096,80.18867924528303,474.28571428571445,4.416666666666667,,,,0.031992835363508006,0.0016454177931628975,,,0.9510849215177931,-3.442243296140988,60.467776107380985,144.77820834132993,0.4176579942529874,27502.809894369842,2.3943035061224553,5.146347176856738,1386.5718873670942,0.4811320754716981,0.4854368932038835,0.68,0.07407407407407407,49.35711323102447,49.31566212193734,49.39641281221531,48.54368932038835,0.5266332521223961,0.47336674787760413,43.88331895935561,41.60487306924899,0.4883130700291413,0.5116869299708586,101.17014493498785,103.56317581244348,0.4940052066879817,0.5059947933120182,77.97802225324449,78.91861899281879,0.6916467118029481,2.090741096933769,1.3689804894583566,0.017518699718037083,1.26190185546875,1.503753662109375,2.724783761160714e-07,0.241851806640625,-0.010041004247788572,0.3429755457482168,0.9478151197483584,0.5983161187136974,56,0.3210139754596176,15.201428571428572,15.201428571428572,0.1740681076345432,0.009518307898991519,0.0,0.207493,-0.00021326282853566958,0.207493,-0.07868340382586952,0.40282456546607953,2.9591154848282057,0.6186467574350956,1,0.028432826334399364,0.125,0.125,22.994435878129917,1.0771428571428572,0.0,1.5114285714285713,0.0,0.7126654064272212,16.65191650390625,32.7792,0.015619536638838034,32.768,32.79,0.0799999999999983,32.84636103548521,0.14397783595989522,32.62726,32.968779999999995,0.7472199999999987,0.8054085525263599,-0.17383432243383298,-0.4317348034713502,0.9302130125229819,0.6014000000000007,90.2053586149244,-97.56799999999998,71.79200000000002,938.97,S4,3.0
51,61.60020346463211,52.56832288963164,974.4837340876945,54.82626724219946,52.83033523231331,0.05626185981803735,0.053944792561207565,980.0,59.303999999999995,0.06051428571428571,75.71428571428578,33.663366336633665,70.29702970297029,249.9999999999999,4.208333333333333,,,,0.08030109311071937,0.0033580909507166783,,,0.9598598648983878,-2.5219720452862173,37.35668829512731,68.12929853826182,0.5483204597233241,7995.620242187511,1.8237510241813482,4.609822268764671,497.0035119436473,0.594059405940594,0.6020408163265306,0.8813559322033898,0.12903225806451613,50.64319566689234,50.680352205545,50.60527958632005,39.795918367346935,0.4185572492024107,0.5814427507975892,24.169572042956013,28.48688791235984,0.5955638750194969,0.40443612498050313,52.577277107389364,43.32702679954388,0.5546442343597159,0.44535576564028434,40.917834013831,36.6656108241752,0.49103009447041623,1.929909807708872,1.3769687761579241,0.016764388389977923,1.12762451171875,1.50146484375,1.1444091796875e-07,0.37384033203125,-0.016964214715547522,0.2425143146184732,1.099606607849381,0.9491110351507995,88,0.2860670845693101,21.704285714285714,21.704285714285714,0.17409220588235294,0.0071634451557352615,0.0,0.187026,-0.00021646433041301626,0.187026,-0.07482650570566021,0.6504297204184639,3.294457544117273,-0.8142599313260938,1,0.025787392756011607,0.125,0.125,25.503097035282273,1.4242857142857144,0.0,1.67,0.0,0.8528656971770745,5.18951416015625,32.7586,0.01365672968408586,32.75,32.77,0.060000000000002274,32.96903704051371,0.018040760768383533,32.944794,32.98532,0.48666400000000465,0.757456538363904,-0.15992856332740485,-0.5462542611839679,0.9474762639453501,0.15799999999999825,64.70709466705044,-99.193,70.16000000000001,404.9,S4,3.0
52,61.527329034330194,62.16502067817855,975.6859971711457,66.7061727089045,62.47818996905989,0.06836848422782431,0.06371416711771681,974.2857142857143,61.42200000000019,0.06304310850439902,82.857142857143,39.603960396039604,71.28712871287128,370.0000000000001,4.590909090909091,,,,0.040000350717500965,0.0022371175254113813,,,0.9470347627716352,-3.2188670569691147,44.17875180338358,83.68120588093291,0.5279411468597142,11614.251977982818,1.89415052406537,4.77196135403385,634.0191998951647,0.5841584158415841,0.5918367346938775,0.8620689655172413,0.1724137931034483,49.97022036926742,49.97405644838471,49.96501853266891,43.87755102040816,0.45383396704689477,0.5461660329531053,29.7619913418654,32.649447078898945,0.5242109923707087,0.4757890076292912,60.58721526422475,57.72117084929553,0.5088709728141282,0.49112902718587154,47.7314717042476,46.892003362894336,0.6368684530766311,2.2900063107871853,1.373821770804269,0.01659403179582657,1.12762451171875,1.540374755859375,5.504063197544643e-07,0.412750244140625,-0.024982606877295973,0.1927322049869277,1.016588083689217,0.4898643922405354,107,0.4203770317461169,26.93714285714286,26.93714285714286,0.17829474468085105,0.00880614104091197,0.0,0.206214,-0.00025809011264080103,0.206214,-0.05104634161262749,0.7914977665520129,2.7061748534256465,-0.7628980805902211,1,0.25329834577253085,6.0,6.0,25.659405770041726,2.045714285714286,0.0,1.8714285714285714,0.0,1.0931297709923664,7.99102783203125,32.767399999999995,0.012231681613242205,32.75,32.79,0.060000000000002274,32.9677208077456,0.018193060761875577,32.943268,32.983826,0.49117999999999995,0.7571745712132701,-0.15857433129309914,-0.5468922266193673,0.9473912905308675,-0.9979750000000013,68.34655226979115,-100.12899999999999,66.68200000000002,575.29,S4,3.0
53,62.30387885740036,66.79579331466276,963.5616438356165,80.41809797029832,67.2637817796894,0.08345921455547024,0.06932176445792411,967.1428571428572,78.36600000000021,0.08102836041358957,97.14285714285722,35.61643835616438,72.6027397260274,374.2857142857141,4.5625,,,,0.04408003491994587,0.0029682083161940826,,,0.9369113889907357,-3.1217483219430124,47.562676224670504,103.83145354422018,0.4580758007438884,15514.76099617337,2.183044811308649,4.897715199656867,906.6748636413795,0.589041095890411,0.6,0.8571428571428571,0.17647058823529413,50.34100596760444,50.213010524173015,50.44752682324338,48.57142857142857,0.5914756556210614,0.40852434437893875,36.57965670768342,30.400460276995403,0.3189143087959284,0.6810856912040716,58.636216055646535,85.68993471686792,0.3661882150878035,0.6338117849121966,48.868584582410556,64.29211808936715,0.566229665335257,1.8123787564307905,1.3773237226236392,0.016199859074260827,1.1341094970703125,1.5773773193359375,4.5413963756721365e-08,0.443267822265625,0.03720944388547066,0.18388951834320033,1.02484188454936,-0.5833917690323269,112,0.3344723303248207,28.701428571428576,28.701428571428576,0.17385881217391302,0.007512977817282721,0.0,0.178072,-0.0003007913043478261,0.178072,-0.09481236523977739,0.39797174659233014,3.8014818121034875,-0.12097457994200886,1,0.02595927940209064,0.125,0.125,30.847057906749995,0.7471428571428571,0.0,0.6328571428571429,0.0,1.18058690744921,7.70721435546875,32.736111111111114,0.014023927343435851,32.71,32.75,0.060000000000002274,32.9643823586508,0.017693228934374625,32.941772,32.980804,0.5090640000000022,0.7545588283075226,-0.16478585800362958,-0.5498223527189758,0.9480601372931169,0.8221180555555548,59.91925530349478,-90.362,67.17700000000002,245.33,S4,3.0
54,97.48372266978811,14.055649706307058,615.4107142857143,37.858672772489875,14.097466579888962,0.0615177342442455,0.022839462134845927,607.1428571428571,38.123999999999924,0.06279247058823517,53.214285714285666,0.625,16.25,197.1428571428571,3.5555555555555554,,,,0.016989268551611758,7.65551541541291e-05,,,0.9955141248688592,-4.075173395925356,9.96841421619021,52.69508020335582,0.1891716300216464,1650.2358532437083,5.286204912890864,3.924516128383124,1114.2279674246306,0.29375,0.26490066225165565,0.4,0.0,51.33928571428571,51.322100995715495,51.35195798575083,50.993377483443716,0.5647739085239083,0.43522609147609165,7.492784783919444,6.5775386328432965,0.45052693123919074,0.5494730687608093,35.369624433584356,39.060992627751986,0.45447551135127423,0.5455244886487259,25.565134034373283,28.009151714500756,0.6188888308724239,0.7168747417209002,9.799183949061803,0.19072422779459597,9.521102905273438,10.623550415039062,9.55309186662949e-06,1.102447509765625,-0.005612006132567161,0.6389697786563917,0.7044537491682044,0.6848684130169672,15,3.394977291104015,14.459999999999999,14.459999999999999,2.593490928035044,0.17533906263783725,0.0,2.876458,-0.0028653604505632043,2.876458,-0.041609361048336,0.7894764128824545,2.0699970912829087,0.8278755878098351,2,0.5867100374049175,1.75,1.75,14.983745335300481,6.948571428571428,0.0,2.51,0.0,2.7683551508252706,36.95526123046875,34.184574999999995,0.037952871117546895,34.13,34.23,0.1599999999999966,34.69091872628962,0.0724926921089114,34.618652000000004,34.801544,0.47387700000000166,0.9125790090551104,-0.0336412282976477,-0.0828706020917285,0.9169513164287553,-2.224774999999999,181.83366350709213,-236.107,238.1280000000001,1156.05,S5,2.0
55,91.64274102758849,18.622640013930233,654.6925260170294,50.687619410012246,18.684235899306657,0.07742202239329336,0.02844486422844215,647.1428571428571,48.71399999999988,0.07527549668874153,63.571428571428555,1.3245033112582782,24.503311258278146,247.14285714285722,4.4411764705882355,,,,0.013554751500844835,9.603090760192035e-05,,,0.9929651719052749,-4.301018128855781,13.211749905688867,70.5915599282595,0.18715764206253058,2929.9687999200614,5.343089328224671,4.173833105710202,1508.7080420616628,0.25165562913907286,0.2361111111111111,0.35294117647058826,0.038461538461538464,50.605652759084805,50.58632768949898,50.62173025384672,54.166666666666664,0.5464103570027463,0.45358964299725385,9.766483192328485,8.89836693548956,0.5115805943316319,0.48841940566836783,50.49051611445907,49.334329990389065,0.512759418717754,0.48724058128224595,36.363968509023366,35.44754610490842,0.6234516790469815,0.679495091391618,9.671708286830357,0.3651858692067929,9.064102172851562,11.046600341796877,-1.53350830078125e-05,1.9824981689453143,0.012761164579897039,0.8397213379516497,0.45807358533018316,-0.8315700189349267,14,4.616816044085418,18.76142857142857,18.76142857142857,3.102440006883605,0.22930290430445155,0.0,3.588761,-0.0034127922403003755,3.588761,-0.06242970241243317,0.7218881017779428,2.1243149147651534,0.9416252954690388,2,0.7580364648994017,1.5,1.5,13.12662702487078,4.872857142857143,0.0,2.0385714285714287,0.0,2.390329362298528,44.99664306640625,33.959275000000005,0.09719744200250137,33.83,34.09,0.29999999999999716,35.09092355739204,0.14271051172869412,34.909393,35.27102700000001,0.6603400000000121,0.9132366539711588,-0.03409192736776445,-0.07090305033989515,0.9166191620381874,-2.0516000000000014,183.77396029810404,-236.522,192.92300000000003,1362.0700000000002,S5,2.0
56,93.11934584641483,17.093767248664076,644.4155844155844,51.97406614575888,17.14760180544261,0.08065302485335418,0.026525999156532323,643.5714285714286,47.65499999999995,0.07404772475027739,55.714285714285666,1.2987012987012987,20.77922077922078,268.57142857142867,3.7560975609756095,,,,0.008665227553677114,5.243497114201093e-05,,,0.9939852029150327,-4.748437094915635,12.12518551771515,72.5617839396481,0.16710153553832202,2764.052044731623,5.984385462278809,4.148516326133908,1736.950739701784,0.3051948051948052,0.27272727272727276,0.38461538461538464,0.03571428571428571,51.153846153846146,51.24980382684933,51.058513495941604,55.24475524475524,0.5777869076965214,0.4222130923034786,9.217869560079379,7.879752159324162,0.4908092966855933,0.5091907033144069,50.835177174697975,51.77834730967412,0.4931726098380064,0.5068273901619934,36.53207055184234,37.03436069526252,0.5669040390905673,0.5970033200070431,9.899144995553153,0.26442137209500993,9.3963623046875,11.046600341796877,4.098074776785714e-06,1.6502380371093768,-0.0002915930233360736,0.6010909269937288,0.715040642334082,-0.1357207207262053,17,6.352826970128457,20.644285714285715,20.644285714285715,2.8339739111389237,0.18730325682339435,0.0,3.24382,-0.003156683354192741,3.24382,-0.05204917382743658,0.7210986165581532,2.2476963240245036,0.8206097644439444,2,0.6797502138393342,1.5,1.5,15.082157034792687,2.902857142857143,0.0,3.025714285714286,0.0,0.959395656279509,31.77490234375,34.109225,0.07379202213876672,34.0,34.21,0.28000000000000114,34.86625236989471,0.18875811776087956,34.63553,35.176575,0.8857119999999981,0.9128627850378216,-0.033073641905074336,-0.07687033073293933,0.9166904482118621,0.7792750000000013,176.4958530677127,-242.88499999999996,211.51399999999998,1037.42,S5,2.0
57,89.93762024533511,15.58699215971374,667.1525096525096,61.616995042504875,15.632059128765217,0.0923581851990611,0.02336346177852545,660.7142857142858,65.65799999999999,0.09937427027027024,90.0,0.0,19.594594594594593,242.85714285714278,5.103448275862069,,,,0.004789820154581195,8.382030024332846e-05,,,0.9828012958649108,-5.341262414280634,11.05353501385896,86.61831722889228,0.12761198055429274,3007.882079346675,7.836254837958168,4.185230916185621,2715.05282976281,0.22972972972972974,0.20567375886524825,0.3793103448275862,0.1,52.07336523125996,52.05897776708087,52.07489875288785,48.93617021276596,0.5536571428571428,0.4463428571428572,8.229055894631504,7.388628880563284,0.5490126527829652,0.45098734721703476,64.18017825880484,58.16904329824457,0.5490871525494875,0.45091284745051263,45.753757453617595,41.46220830447737,0.6484194055110275,0.7843165676982387,9.089896060398647,0.27999005455800313,8.538436889648438,10.272979736328123,-4.899161202566964e-06,1.7345428466796857,0.0012659932922544548,0.8339700164833304,0.45474458968085874,-0.7127723295258895,18,4.075694578893094,22.694285714285716,22.694285714285716,3.6735395694618274,0.16720410519545642,0.0,3.940471,-0.0044195356695869836,3.940471,-0.06353579013614923,0.7978838598474312,2.829484361488821,-0.3977208268500269,1,0.516755904283162,0.125,0.125,18.206756247132716,1.85,0.0,1.3157142857142856,0.0,1.4060803474484258,44.390869140625,33.832924999999996,0.04812988249489469,33.75,33.89,0.19999999999999574,34.940335451164984,0.10441593896414478,34.798492,35.077606,0.6491389999999981,0.9133813917339704,-0.03375658314057759,-0.06872574417279895,0.916585130570705,1.27335,108.42366227965569,-95.02799999999998,105.37,1227.62,S5,2.0
58,92.69766696253073,21.885571913245826,646.9666048237476,55.307916831026574,21.953750769152087,0.08548805520818814,0.033827977750425134,632.8571428571429,52.949999999999925,0.08366817155756195,71.42857142857133,1.2987012987012987,24.675324675324674,245.71428571428567,4.529411764705882,,,,0.008394800130638827,8.717614027473484e-05,,,0.9897221900309154,-4.780142796879133,15.523646041346824,76.46287389690619,0.2030220059773994,3729.015783676762,4.925574423254004,4.278564331550294,1506.4943039803895,0.2077922077922078,0.19463087248322147,0.3448275862068966,0.045454545454545456,48.676923076923075,48.53914756867126,48.80364751347245,54.36241610738255,0.3831072990058202,0.6168927009941799,9.610080748209695,12.19471456708674,0.5069346295600182,0.49306537043998155,54.44106305864099,53.69117001536893,0.5020311824460928,0.49796881755390715,39.09081093391409,38.932331043696635,0.555069572474006,0.7124901434030761,9.358946086338587,0.28350384771086395,8.794021606445312,10.405731201171877,-1.628875732421875e-05,1.6117095947265643,0.003443673439376419,0.7503051857611335,0.47539906373630686,-0.5282709481916434,19,4.546774622679475,23.38571428571429,23.38571428571429,3.4811429787234047,0.2819396337919595,0.0,3.940471,-0.0037909349186483103,3.940471,-0.04315900430379302,0.8555048795567599,1.7876309348639798,0.8861997895022748,1,0.5560915104254445,0.125,0.125,16.062589296667237,1.43,0.0,2.467142857142857,0.0,0.5796178343949044,47.18475341796875,33.870825,0.03561235705393951,33.83,33.91,0.1599999999999966,35.06117064663362,0.1421042959292793,34.87549,35.27102700000001,0.7218640000000107,0.9132483766187292,-0.03432166876707758,-0.07114298520363199,0.9166580053037149,0.7619249999999986,160.93877029480618,-187.813,162.52500000000006,1384.3200000000002,S5,2.0
59,88.81104665556937,14.317479361402551,675.5879494655005,46.23901547546797,14.366761795385958,0.06844262913814629,0.02119262099439458,671.4285714285713,46.595999999999854,0.06939829787234023,63.571428571428555,0.0,14.965986394557824,225.71428571428567,4.083333333333333,,,,0.00605531764949413,6.025221957786851e-05,,,0.9901477342475344,-5.1068184426604235,10.158834689209229,64.74179004484948,0.15691309557816918,2066.2290776899213,6.372954381629871,4.022148578966065,1650.3858981635387,0.32653061224489793,0.31654676258992803,0.5909090909090909,0.04,49.95442114858705,49.95306383501717,49.9561535039308,53.956834532374096,0.5756563245823391,0.42434367541766094,7.707714771258336,6.617635789938569,0.475168364439121,0.524831635560879,44.628106660402814,46.90236107190214,0.47758309707142876,0.5224169029285713,32.024028252917866,33.49346635963018,0.6809901455715792,0.7372425004251694,9.396003919328962,0.28293584687068546,8.867263793945312,10.212326049804688,1.495906284877232e-05,1.345062255859375,0.00033348609486214887,0.9405757638331151,0.2957517634460489,0.975238408708742,12,1.7588288876200977,12.641428571428571,12.641428571428571,3.4886073160200253,0.1537487630073155,0.0,3.708982,-0.004307488110137672,3.708982,-0.057533761389194596,0.4280109194739641,3.1339143595456136,-0.05189451513729233,1,0.5248598664872706,0.125,0.125,29.764088644825314,0.9357142857142857,0.0,1.9285714285714286,0.0,0.48518518518518516,27.39715576171875,33.663774999999994,0.03414548521255755,33.63,33.73,0.1600000000000037,34.48905317188326,0.06725668957067507,34.4209,34.583344,0.472444000000003,0.9122162623922545,-0.03843124599627086,-0.08899672301581928,0.9173526512466593,0.056075000000000014,140.4280595130149,-154.33499999999998,158.48300000000012,1164.88,S5,2.0
60,85.99990698244429,14.94865046811163,697.7062374245472,47.13962033236711,15.000120615137208,0.06756370776671604,0.021425421855610454,695.0,49.772999999999975,0.07161582733812946,69.28571428571422,0.0,17.6056338028169,218.57142857142856,4.896551724137931,,,,0.007151469825999287,0.00016088636328938984,,,0.9779980133455397,-4.940437373333022,10.606687005579644,65.74053875335157,0.16134165017074636,2190.5989992794866,6.198027595117003,4.047532994898606,1629.8466932445272,0.2605633802816901,0.24817518248175183,0.4117647058823529,0.047619047619047616,51.00788781770377,51.09478578518192,50.924312656537616,47.44525547445255,0.5477038668307534,0.4522961331692468,7.850646665162337,7.134178401030209,0.5573440834527325,0.44265591654726744,49.078915379498454,43.738752848623264,0.5570994464675145,0.44290055353248553,35.14521722716474,31.336679803472123,0.6978056953040817,0.9044562742271524,9.038368154253279,0.19181957648342454,8.538436889648438,9.79156494140625,7.264273507254439e-06,1.2531280517578125,-0.009020065620448674,0.8362320783473738,0.47161205707682424,0.8340664193627906,12,2.6679953341597544,17.080000000000002,17.080000000000002,3.55136439612015,0.17671613443922934,0.0,3.812576,-0.004627623279098874,3.812576,-0.05799285408537245,0.8146729790135996,2.66574978099988,-0.8938373155399411,1,0.5206412431234839,0.125,0.125,29.836230294041403,1.1014285714285714,0.0,1.3885714285714286,0.0,0.7932098765432098,41.95556640625,33.7314,0.07680356090324617,33.63,33.84,0.259999999999998,34.73056290814417,0.21505495171336975,34.494415000000004,35.039,0.865204999999996,0.9129484977022726,-0.03545589741979326,-0.07563518593566758,0.9167621073485762,0.3468500000000003,78.8216167160496,-53.587999999999965,60.43200000000003,856.45,S5,2.0
61,84.01668759241541,14.384235841961594,714.2034943473792,39.89922597973671,14.436603955895029,0.0558653469151612,0.020140248480729626,711.4285714285714,38.124000000000095,0.05358795180722905,52.85714285714289,0.7194244604316548,11.510791366906476,191.42857142857144,4.633333333333334,,,,0.008871886081484934,0.00012221279240155387,,,0.9864118913839843,-4.724867869245888,10.208220554517911,55.56749906339807,0.18370847575614568,1782.0536236019077,5.443406984266738,3.957890878172198,1209.9060499997456,0.31654676258992803,0.3007518796992481,0.45,0.12,49.85862393967954,49.8489484652973,49.86860160012874,53.383458646616546,0.5562861839754131,0.44371381602458687,7.6137777221393295,6.799900105294066,0.47750056264502233,0.5224994373549777,38.397928420192265,40.16647912374866,0.48007268894553023,0.5199273110544697,27.68005164522236,28.80611642204234,0.6735247132432942,0.9077696821422208,10.129391964503696,0.2622020355634662,9.747695922851562,11.113739013671877,-2.9373168945312755e-06,1.3660430908203143,0.011563884125875893,0.6396531021187983,0.6811849975881418,0.1427356879609488,15,5.887958033044906,16.80142857142857,16.80142857142857,3.9011557816020024,0.27887214018365514,0.0,4.738588,-0.0044131326658322905,4.738588,-0.07102798809840555,0.6679604825396127,2.3581630191728347,0.9143007287117861,1,0.6628074818074445,0.125,0.125,19.831648195299426,4.2628571428571425,0.0,3.327142857142857,0.0,1.2812365822241305,27.8961181640625,33.767225,0.030755717523755603,33.73,33.81,0.14999999999999858,34.51820734090942,0.06708879426097152,34.440796,34.617126,0.4356079999999949,0.9127776490571003,-0.0442835972402777,-0.07801965867308976,0.9171756324402712,-1.7393750000000008,191.29381242617526,-205.71699999999998,212.83200000000022,2095.45,S5,2.0
62,87.83449953667188,14.06173624784134,683.0935960591133,55.08497192935276,14.09157405284254,0.08064044553652328,0.020585372676549685,671.4285714285713,55.06800000000012,0.08201617021276615,80.0,0.6896551724137931,11.724137931034482,238.57142857142856,4.67741935483871,,,,0.003738852974444845,4.448477908957839e-05,,,0.9882419223480589,-5.588976405920007,9.964247570357362,77.27930771340301,0.12893810601035188,2419.1210752328407,7.755659137103459,4.090627714987434,2397.4078759059357,0.31724137931034485,0.30656934306569344,0.6190476190476191,0.08695652173913043,53.49716446124763,53.52496032386006,53.45571691444011,52.55474452554745,0.6393348623853212,0.36066513761467883,7.978134812047648,5.9922408323318,0.517427814050901,0.48257218594909884,55.58890355778887,53.68393802531329,0.5194267391185245,0.48057326088147545,39.71005435551781,38.19602173066158,0.6010498245095635,0.5919072925719462,9.85737848009382,0.3153782877302434,9.17510986328125,11.113739013671877,1.5351431710379463e-05,1.9386291503906268,-0.00953206831700019,0.8745450496584086,0.4166904307633615,0.8895690719562552,10,2.925313911456921,11.851428571428572,11.851428571428572,3.6244701727158946,0.2204598911335568,0.0,4.054443,-0.004342702127659575,4.054443,-0.047659369772004266,0.6717253686039751,2.4014295205154284,0.7226696829155849,2,0.9053211974603298,1.125,1.125,22.292857483941308,1.0071428571428571,0.0,1.2042857142857142,0.0,0.8362989323843417,27.39715576171875,33.707024999999994,0.052557636341874416,33.65,33.79,0.20000000000000284,34.45839689627291,0.042909545312968804,34.40558,34.512787,0.33713000000000193,0.9127694318925338,-0.040874111666849684,-0.07839139675121932,0.9170408605327137,-2.5620000000000003,203.11395579969758,-239.68,228.56800000000018,2095.45,S5,2.0
63,86.92421365889227,18.49094988445735,690.3075396825396,48.42051043879003,18.555944636294164,0.0701433892219369,0.026786539073528032,680.7142857142857,46.596000000000025,0.06845162644281222,70.00000000000011,0.0,27.77777777777778,209.9999999999999,3.789473684210526,,,,0.012493454661762323,8.847996112220274e-05,,,0.9929676982297084,-4.38255039887342,13.121034283645747,67.3897144698159,0.19470381180384294,2777.867707863167,5.136006279155253,4.150681669177253,1384.4559866698162,0.2569444444444444,0.23357664233576642,0.46875,0.047619047619047616,49.99999999999999,49.99872848002052,50.001078210923,56.20437956204379,0.5368561649553387,0.46314383504466133,9.613843377042212,8.929476815262397,0.4236982635570311,0.5763017364429693,43.86538630172886,51.1585916628225,0.42783134796080297,0.5721686520391969,31.753724977380216,36.72149954126139,0.6734824982307868,0.8455216609859475,9.630029362269811,0.21237586700567285,9.28802490234375,10.649490356445312,-3.831045968191964e-06,1.3614654541015625,0.009001363452110693,0.6339958478039246,0.6991169354361921,-0.47661140559331616,12,3.811898167391014,14.111428571428574,14.111428571428574,4.201617553817272,0.19889511877716975,0.0,4.68871,-0.005639325406758448,4.68871,-0.04340023600357647,0.5868706457926147,2.9696009849840315,0.35196539732368304,2,1.0466677553211439,1.875,1.875,18.447730991853465,1.7385714285714287,0.0,2.138571428571429,0.0,0.8129592518370073,34.4512939453125,33.68579999999999,0.04296481045394429,33.63,33.75,0.1600000000000037,34.717263976814614,0.08711504500542554,34.598694,34.82312,0.5198669999999979,0.9123160469775707,-0.051861216353664405,-0.09072836964687714,0.9182819786934965,1.5100000000000044,291.713983257694,-361.819,334.1690000000002,3007.67,S5,2.0
64,85.37519571285867,16.413483397313517,702.8061224489796,39.44610283728479,16.472454442025793,0.05612657826575549,0.023354212311241008,700.7142857142858,45.53699999999993,0.06498654434250753,60.714285714285666,0.0,20.714285714285715,177.1428571428571,5.0,,,,0.012658407193683248,0.0001234347144419409,,,0.9903429634532191,-4.369433684266414,11.647784238742904,54.7536313060952,0.21273080818379012,2003.5773672855291,4.700776575511544,4.0087762271504985,1029.5383498715514,0.32142857142857145,0.29007633587786263,0.47368421052631576,0.125,50.441767068273094,50.44204612353238,50.44020243997072,54.961832061068705,0.5338710556433597,0.4661289443566403,8.510827872054017,7.9525545163985525,0.44482973129221104,0.555170268707789,36.51823933374183,40.7967932216168,0.44868495957885357,0.5513150404211465,26.51429798339172,29.390657193261685,0.6628918484715944,0.9541610059295648,9.931696052551269,0.3227809182060223,9.427261352539062,11.060714721679688,-1.094273158482143e-05,1.633453369140625,0.009750309069754635,0.8210875025349248,0.5057120143184041,-0.8053943468399679,14,4.907482865918386,15.510000000000002,15.510000000000002,4.086735280350438,0.20356559291848955,0.0,4.738588,-0.004808684605757197,4.738588,-0.06025617989444884,0.6618920580004238,2.703096980746762,0.09626467893662723,2,0.5829131185229104,0.5,0.5,17.883143944265175,1.4257142857142857,0.0,2.15,0.0,0.6631229235880399,28.4912109375,33.7519,0.03831527306931267,33.71,33.81,0.1700000000000017,34.62507517729747,0.09929736823340102,34.506653,34.789246,0.614806999999999,0.9124187598410536,-0.048961692037852285,-0.0886338458282607,0.918020260791342,1.3875750000000031,243.78791467939647,-256.731,262.04600000000005,3007.67,S5,2.0
65,88.62764161996992,14.215227894115257,676.945054945055,31.853736327994174,14.303401041049913,0.04705512817518051,0.02099908669141405,671.4285714285713,23.297999999999927,0.03469914893617011,30.0,0.0,12.307692307692308,145.71428571428567,3.823529411764706,,,,0.016589631370344228,8.979274501278985e-05,,,0.9946165560398386,-4.0989773950179575,10.114031870157115,44.00786206796837,0.2298232950861462,1398.3132124143751,4.351169012806832,3.852574571205219,765.9425830000846,0.35384615384615387,0.360655737704918,0.5909090909090909,0.2,54.048140043763695,54.124704869092085,53.96453188363416,54.09836065573771,0.6269528167902796,0.3730471832097204,8.021876470353062,6.187859206131601,0.5637055380812084,0.43629446191879157,33.041246389920715,29.068332611174643,0.5668887898300909,0.4331112101699092,24.042404882884043,21.014965647709097,0.6287015370154219,0.8552030398943167,9.511090169660955,0.18731804867015003,9.120559692382812,10.187149047851562,4.735218993807399e-06,1.06658935546875,-0.07460766041633575,0.4263496505880553,0.7206504351455785,0.14860518376895507,6,1.5447626038895392,7.024285714285715,7.024285714285715,4.2721885919220055,0.23675747001541805,0.0,4.517331,-0.012095030640668527,4.517331,-0.1252536902300719,0.4875276958717582,3.786053868783535,-0.6216254539880386,1,0.6755939233098998,0.125,0.125,19.498869719775534,1.4814285714285713,0.0,2.0285714285714285,0.0,0.7302816901408451,32.598876953125,33.629000000000005,0.016344749554178417,33.61,33.65,0.04999999999999716,34.64268583390476,0.0404705080910565,34.586395,34.690826,0.3225100000000012,0.912343136692804,-0.05694513710150643,-0.08871245084490095,0.9184131132801201,-10.429666666666664,249.39449971736295,-316.649,274.662,1839.79,S5,2.0
66,67.34033023380294,24.983482484064144,891.132561132561,64.89126544363526,25.097793443999993,0.07281886923889691,0.028035652128244597,900.0,69.89400000000012,0.07766000000000013,100.71428571428578,3.6036036036036037,36.03603603603604,258.57142857142867,5.045454545454546,,,,0.004130455482025794,0.00023206269748219413,,,0.9468053339990055,-5.489367591885479,17.746819937071667,90.22776512335743,0.1966891223872009,5030.49377500032,5.084165244437903,4.408580725879167,1834.931470093921,0.3783783783783784,0.38317757009345793,0.5853658536585366,0.09523809523809523,50.10238907849829,50.100158471007184,50.10378075203585,47.66355140186916,0.4454418452575571,0.5545581547424427,11.844495773767921,13.215835338276875,0.5522465867525517,0.44775341324744833,67.05122559444382,60.37534882250174,0.5482685599791716,0.45173144002082827,48.14643773869363,43.70263750122646,0.7407472144442369,1.1407237740182363,5.9420911352975025,0.20041944468258158,5.4592132568359375,6.5937042236328125,-2.6757376534598213e-06,1.134490966796875,0.0018531007116015174,0.8624959591091363,0.35729487632394163,-0.0845847748281049,11,1.3306575387317239,11.80857142857143,11.80857142857143,1.5199111614518146,0.09356232880502435,0.0,1.723371,-0.002072072590738423,1.723371,-0.04640333562578489,0.8464105070612669,2.143934849809179,-0.7547295393542626,2,0.36546494195202905,2.0,2.0,23.735288490546207,2.1685714285714286,0.0,1.3971428571428572,0.0,1.5521472392638036,16.71600341796875,34.447525,0.019469772857890737,34.43,34.47,0.09000000000000341,34.901807214568365,0.030795580036995143,34.846222,34.929413000000004,0.33001500000000306,0.8188807467774264,-0.050990522518319537,-0.4411848493716429,0.9315630854346505,-0.10569999999999907,137.57718603497912,-131.86599999999999,124.14100000000006,1387.0700000000002,S5,3.0
67,65.65653983472502,23.31484331383781,913.8095238095239,47.51180625634248,23.423808036036913,0.0519931178417505,0.02551389836324096,910.0,50.83200000000007,0.055859340659340735,70.71428571428578,3.7037037037037033,30.555555555555557,217.1428571428571,4.153846153846154,,,,0.009970843322881014,0.00033703618117878343,,,0.967303053838955,-4.608090112539348,16.56313350349365,65.25397057192674,0.25382568077197376,3395.465466604495,3.939711683067867,4.237869427818781,1028.3273209151464,0.4166666666666667,0.42990654205607476,0.6739130434782609,0.038461538461538464,49.4556765163297,49.47355027573169,49.438658988449426,51.4018691588785,0.5180350877192985,0.4819649122807015,11.921641223299156,11.499108468564572,0.5248383859984661,0.47516161400153417,47.27371562643645,44.980845770980125,0.5244265723086475,0.4755734276913524,34.474118687692716,32.82914849523601,0.6910956843923666,1.3077040865266691,5.788530894688198,0.12814950885098986,5.3211212158203125,6.1946868896484375,-4.604884556361607e-06,0.873565673828125,0.008396008373723804,0.8669534599897403,0.3797758709132584,-0.8405546127287861,9,0.9058285343796454,9.767142857142858,9.767142857142858,1.360222337922403,0.07713561001121712,0.0,1.478893,-0.0018205168961201502,1.478893,-0.04175515302562323,0.9130978184098455,2.233629954484507,-0.9511044067254508,1,0.18587856644090728,0.125,0.125,23.49124055023392,1.7985714285714285,0.0,1.7871428571428571,0.0,1.0063948840927257,13.3514404296875,34.512550000000005,0.07963889366043789,34.45,34.65,0.29999999999999716,34.91347449612148,0.03099289140044814,34.856995,34.9433,0.3285199999999975,0.8244027456514028,-0.04514224697842915,-0.4289269216498198,0.9304063701500671,-1.0680750000000012,103.58716689778298,-119.07499999999999,111.56500000000004,953.52,S5,3.0
